Username,ID,ExperimentName,Session,Trial,Date,TimeDif,"Condition Number","Stimuli File","Order File","Condition Description","Condition Notes",Stimuli*Cue,Stimuli*Answer,Stimuli*Shuffle,"Stimuli*Stimuli Notes",Stimuli*Value,Procedure*Item,"Procedure*Trial Type","Procedure*Max Time","Procedure*Min Time",Procedure*Text,"Procedure*Procedure Notes",Procedure*Shuffle,Response*RT,Response*Response,Response*Accuracy,Response*RTfirst,Response*RTlast,Response*strictAcc,Response*lenientAcc,Response*focus,Response*JOL,Response*Focus
w10129997JBB,8pugqmnlxh,"Mediated JOLs",1,1,2023-11-06T17:26:34+00:00,15.682161092758,4,versionB_stim.csv,JOLVersion.csv,JOL,JOL2,,,,,,0,Instruct,-,5,"In this section, you will be presented with a series of word pairs. Please study each word pair! Your memory will be tested!",Initial_Instruct,Instruct1,15410,,,-1,-1,,,,,1
w10129997JBB,8pugqmnlxh,"Mediated JOLs",1,2,2023-11-06T17:27:20+00:00,46.317004919052,4,versionB_stim.csv,JOLVersion.csv,JOL,JOL2,,,,,,0,Instruct,-,10,"As you study, you will be asked to rate your ability to remember the second item in the pair if you were only shown the first at test. You will make these ratings using a 0 to 100 Scale.",,Instruct13,46097,,,-1,-1,,,,,1
w10129997JBB,8pugqmnlxh,"Mediated JOLs",1,3,2023-11-06T17:27:36+00:00,16.637700080872,4,versionB_stim.csv,JOLVersion.csv,JOL,JOL2,,,,,,0,Instruct,-,10,"For example, if you are given the pair CAT - DOG, a rating of 0 indicates that you would not remember DOG at test, while a rating of 100 indicates full certainty that you would remember the word DOG at test.",,Instruct14,16404,,,-1,-1,,,,,1
w10129997JBB,8pugqmnlxh,"Mediated JOLs",1,4,2023-11-06T17:27:48+00:00,11.280521869659,4,versionB_stim.csv,JOLVersion.csv,JOL,JOL2,,,,,,0,Instruct,-,10,"When making your ratings, it is criticial that you use the full range of the scale. You will be disqualified for only giving ratings of 0 or 100! After making your rating, press Enter to advance to the next pair.",,Instruct15,11098,,,-1,-1,,,,,1
w10129997JBB,8pugqmnlxh,"Mediated JOLs",1,5,2023-11-06T17:27:50+00:00,2.4286320209503,4,versionB_stim.csv,JOLVersion.csv,JOL,JOL2,,,,,,0,Instruct,User,-,"You will now begin the study. Press Enter when you are ready to begin.",,Instruct16,2246,,,-1,-1,,,,,1
w10129997JBB,8pugqmnlxh,"Mediated JOLs",1,6,2023-11-06T17:28:00+00:00,10.295015096664,4,versionB_stim.csv,JOLVersion.csv,JOL,JOL2,DAYS,WEAKS,BUFFER3,Buffer,1,4,JOL,User,-,"How likely are you to correctly recall the second item in the pair?|Type your response on a scale from 0-100 and then press Enter.",Study/JOL,BUFFER,10103,,,9118,9231,,,,20,1
w10129997JBB,8pugqmnlxh,"Mediated JOLs",1,7,2023-11-06T17:28:05+00:00,4.6997468471527,4,versionB_stim.csv,JOLVersion.csv,JOL,JOL2,MONTH,YEAR,BUFFER3,Buffer,2,5,JOL,User,-,"How likely are you to correctly recall the second item in the pair?|Type your response on a scale from 0-100 and then press Enter.",Study/JOL,BUFFER,4513,,,3153,3412,,,,100,1
w10129997JBB,8pugqmnlxh,"Mediated JOLs",1,8,2023-11-06T17:28:08+00:00,3.0329041481018,4,versionB_stim.csv,JOLVersion.csv,JOL,JOL2,OCTOBER,SPOOKY,BUFFER3,Buffer,5,3,JOL,User,-,"How likely are you to correctly recall the second item in the pair?|Type your response on a scale from 0-100 and then press Enter.",Study/JOL,BUFFER,2846,,,1711,2032,,,,100,1
w10129997JBB,8pugqmnlxh,"Mediated JOLs",1,9,2023-11-06T17:28:12+00:00,3.5126080513,4,versionB_stim.csv,JOLVersion.csv,JOL,JOL2,SPRING,MARCH,BUFFER3,Buffer,4,2,JOL,User,-,"How likely are you to correctly recall the second item in the pair?|Type your response on a scale from 0-100 and then press Enter.",Study/JOL,BUFFER,3336,,,2268,2435,,,,69,1
w10129997JBB,8pugqmnlxh,"Mediated JOLs",1,10,2023-11-06T17:28:16+00:00,4.1915760040283,4,versionB_stim.csv,JOLVersion.csv,JOL,JOL2,TOOL,SHED,BUFFER3,Buffer,3,6,JOL,User,-,"How likely are you to correctly recall the second item in the pair?|Type your response on a scale from 0-100 and then press Enter.",Study/JOL,BUFFER,4021,,,3329,3550,,,,87,1
w10129997JBB,8pugqmnlxh,"Mediated JOLs",1,11,2023-11-06T17:28:22+00:00,5.7819249629974,4,versionB_stim.csv,JOLVersion.csv,JOL,JOL2,ISLAND,REALITY,Study2,M,9,38,JOL,User,-,"How likely are you to correctly recall the second item in the pair?|Type your response on a scale from 0-100 and then press Enter.",Study/JOL,"Study Phase",5588,,,4933,5116,,,,37,1
w10129997JBB,8pugqmnlxh,"Mediated JOLs",1,12,2023-11-06T17:28:27+00:00,4.8795528411865,4,versionB_stim.csv,JOLVersion.csv,JOL,JOL2,DIETARY,SACK,Study2,U,42,21,JOL,User,-,"How likely are you to correctly recall the second item in the pair?|Type your response on a scale from 0-100 and then press Enter.",Study/JOL,"Study Phase",4694,,,4207,4355,,,,11,1
w10129997JBB,8pugqmnlxh,"Mediated JOLs",1,13,2023-11-06T17:28:29+00:00,2.5706331729889,4,versionB_stim.csv,JOLVersion.csv,JOL,JOL2,SNOW,SUMMER,Study2,M,6,34,JOL,User,-,"How likely are you to correctly recall the second item in the pair?|Type your response on a scale from 0-100 and then press Enter.",Study/JOL,"Study Phase",2380,,,2210,2210,,,,2,1
w10129997JBB,8pugqmnlxh,"Mediated JOLs",1,14,2023-11-06T17:28:32+00:00,2.9617698192596,4,versionB_stim.csv,JOLVersion.csv,JOL,JOL2,CHILL,COLD,Study2,F,32,8,JOL,User,-,"How likely are you to correctly recall the second item in the pair?|Type your response on a scale from 0-100 and then press Enter.",Study/JOL,"Study Phase",2784,,,2453,2566,,,,99,1
w10129997JBB,8pugqmnlxh,"Mediated JOLs",1,15,2023-11-06T17:28:35+00:00,2.6773481369019,4,versionB_stim.csv,JOLVersion.csv,JOL,JOL2,THIGH,GRILL,Study2,M,17,39,JOL,User,-,"How likely are you to correctly recall the second item in the pair?|Type your response on a scale from 0-100 and then press Enter.",Study/JOL,"Study Phase",2488,,,1972,2022,,,,98,1
w10129997JBB,8pugqmnlxh,"Mediated JOLs",1,16,2023-11-06T17:28:37+00:00,1.9422030448914,4,versionB_stim.csv,JOLVersion.csv,JOL,JOL2,FEATHER,HEAVY,Study2,M,13,19,JOL,User,-,"How likely are you to correctly recall the second item in the pair?|Type your response on a scale from 0-100 and then press Enter.",Study/JOL,"Study Phase",1765,,,1584,1584,,,,1,1
w10129997JBB,8pugqmnlxh,"Mediated JOLs",1,17,2023-11-06T17:28:39+00:00,2.3203589916229,4,versionB_stim.csv,JOLVersion.csv,JOL,JOL2,DOCUMENT,PAPER,Study2,F,27,22,JOL,User,-,"How likely are you to correctly recall the second item in the pair?|Type your response on a scale from 0-100 and then press Enter.",Study/JOL,"Study Phase",2137,,,1736,1950,,,,100,1
w10129997JBB,8pugqmnlxh,"Mediated JOLs",1,18,2023-11-06T17:28:42+00:00,2.9064629077911,4,versionB_stim.csv,JOLVersion.csv,JOL,JOL2,INCENSE,SMELL,Study2,F,28,36,JOL,User,-,"How likely are you to correctly recall the second item in the pair?|Type your response on a scale from 0-100 and then press Enter.",Study/JOL,"Study Phase",2729,,,2422,2545,,,,99,1
w10129997JBB,8pugqmnlxh,"Mediated JOLs",1,19,2023-11-06T17:28:44+00:00,1.8287780284882,4,versionB_stim.csv,JOLVersion.csv,JOL,JOL2,CHOP,CUT,Study2,F,22,33,JOL,User,-,"How likely are you to correctly recall the second item in the pair?|Type your response on a scale from 0-100 and then press Enter.",Study/JOL,"Study Phase",1647,,,1344,1452,,,,99,1
w10129997JBB,8pugqmnlxh,"Mediated JOLs",1,20,2023-11-06T17:28:45+00:00,1.5159289836884,4,versionB_stim.csv,JOLVersion.csv,JOL,JOL2,BLAZE,FIRE,Study2,F,26,47,JOL,User,-,"How likely are you to correctly recall the second item in the pair?|Type your response on a scale from 0-100 and then press Enter.",Study/JOL,"Study Phase",1328,,,983,1123,,,,99,1
w10129997JBB,8pugqmnlxh,"Mediated JOLs",1,21,2023-11-06T17:28:48+00:00,3.1021690368652,4,versionB_stim.csv,JOLVersion.csv,JOL,JOL2,SMELL,EYES,Study2,M,10,14,JOL,User,-,"How likely are you to correctly recall the second item in the pair?|Type your response on a scale from 0-100 and then press Enter.",Study/JOL,"Study Phase",2920,,,2608,2760,,,,13,1
w10129997JBB,8pugqmnlxh,"Mediated JOLs",1,22,2023-11-06T17:28:51+00:00,2.2849020957947,4,versionB_stim.csv,JOLVersion.csv,JOL,JOL2,HERD,COW,Study2,F,33,35,JOL,User,-,"How likely are you to correctly recall the second item in the pair?|Type your response on a scale from 0-100 and then press Enter.",Study/JOL,"Study Phase",2103,,,1692,1920,,,,100,1
w10129997JBB,8pugqmnlxh,"Mediated JOLs",1,23,2023-11-06T17:28:54+00:00,3.3766939640045,4,versionB_stim.csv,JOLVersion.csv,JOL,JOL2,SICK,HIDE,Study2,U,45,45,JOL,User,-,"How likely are you to correctly recall the second item in the pair?|Type your response on a scale from 0-100 and then press Enter.",Study/JOL,"Study Phase",3178,,,2947,3025,,,,12,1
w10129997JBB,8pugqmnlxh,"Mediated JOLs",1,24,2023-11-06T17:28:57+00:00,2.8315999507904,4,versionB_stim.csv,JOLVersion.csv,JOL,JOL2,PEAK,VALLEY,Study2,M,18,28,JOL,User,-,"How likely are you to correctly recall the second item in the pair?|Type your response on a scale from 0-100 and then press Enter.",Study/JOL,"Study Phase",2634,,,2279,2425,,,,88,1
w10129997JBB,8pugqmnlxh,"Mediated JOLs",1,25,2023-11-06T17:28:59+00:00,2.5175769329071,4,versionB_stim.csv,JOLVersion.csv,JOL,JOL2,CAVE,TRAP,Study2,M,15,37,JOL,User,-,"How likely are you to correctly recall the second item in the pair?|Type your response on a scale from 0-100 and then press Enter.",Study/JOL,"Study Phase",2328,,,1915,2078,,,,87,1
w10129997JBB,8pugqmnlxh,"Mediated JOLs",1,26,2023-11-06T17:29:08+00:00,8.4710559844971,4,versionB_stim.csv,JOLVersion.csv,JOL,JOL2,CHISEL,HAMMER,Study2,F,23,25,JOL,User,-,"How likely are you to correctly recall the second item in the pair?|Type your response on a scale from 0-100 and then press Enter.",Study/JOL,"Study Phase",8288,,,7584,8043,,,,100,1
w10129997JBB,8pugqmnlxh,"Mediated JOLs",1,27,2023-11-06T17:29:14+00:00,5.6621119976044,4,versionB_stim.csv,JOLVersion.csv,JOL,JOL2,DRINK,SOAP,Study2,M,12,30,JOL,User,-,"How likely are you to correctly recall the second item in the pair?|Type your response on a scale from 0-100 and then press Enter.",Study/JOL,"Study Phase",5492,,,5367,5367,,,,2,1
w10129997JBB,8pugqmnlxh,"Mediated JOLs",1,28,2023-11-06T17:29:16+00:00,2.7140440940857,4,versionB_stim.csv,JOLVersion.csv,JOL,JOL2,BRIDGE,WATER,Study2,F,35,46,JOL,User,-,"How likely are you to correctly recall the second item in the pair?|Type your response on a scale from 0-100 and then press Enter.",Study/JOL,"Study Phase",2525,,,2187,2299,,,,99,1
w10129997JBB,8pugqmnlxh,"Mediated JOLs",1,29,2023-11-06T17:29:21+00:00,4.8808100223541,4,versionB_stim.csv,JOLVersion.csv,JOL,JOL2,FEUD,FIGHT,Study2,F,31,31,JOL,User,-,"How likely are you to correctly recall the second item in the pair?|Type your response on a scale from 0-100 and then press Enter.",Study/JOL,"Study Phase",4690,,,4176,4466,,,,100,1
w10129997JBB,8pugqmnlxh,"Mediated JOLs",1,30,2023-11-06T17:29:24+00:00,2.6755449771881,4,versionB_stim.csv,JOLVersion.csv,JOL,JOL2,ART,WOLF,Study2,U,38,29,JOL,User,-,"How likely are you to correctly recall the second item in the pair?|Type your response on a scale from 0-100 and then press Enter.",Study/JOL,"Study Phase",2496,,,2166,2348,,,,32,1
w10129997JBB,8pugqmnlxh,"Mediated JOLs",1,31,2023-11-06T17:29:28+00:00,4.190083026886,4,versionB_stim.csv,JOLVersion.csv,JOL,JOL2,ARTERY,BRONZE,Study2,U,48,49,JOL,User,-,"How likely are you to correctly recall the second item in the pair?|Type your response on a scale from 0-100 and then press Enter.",Study/JOL,"Study Phase",3994,,,3631,3863,,,,31,1
w10129997JBB,8pugqmnlxh,"Mediated JOLs",1,32,2023-11-06T17:29:31+00:00,3.2996029853821,4,versionB_stim.csv,JOLVersion.csv,JOL,JOL2,CHERRY,RED,Study2,F,25,12,JOL,User,-,"How likely are you to correctly recall the second item in the pair?|Type your response on a scale from 0-100 and then press Enter.",Study/JOL,"Study Phase",3108,,,2723,2747,,,,12,1
w10129997JBB,8pugqmnlxh,"Mediated JOLs",1,33,2023-11-06T17:29:35+00:00,3.6668260097504,4,versionB_stim.csv,JOLVersion.csv,JOL,JOL2,DEATH,BUSINESS,Study2,U,44,42,JOL,User,-,"How likely are you to correctly recall the second item in the pair?|Type your response on a scale from 0-100 and then press Enter.",Study/JOL,"Study Phase",3478,,,3288,3288,,,,6,1
w10129997JBB,8pugqmnlxh,"Mediated JOLs",1,34,2023-11-06T17:29:38+00:00,2.9761869907379,4,versionB_stim.csv,JOLVersion.csv,JOL,JOL2,LEASE,TOIL,Study2,U,46,32,JOL,User,-,"How likely are you to correctly recall the second item in the pair?|Type your response on a scale from 0-100 and then press Enter.",Study/JOL,"Study Phase",2801,,,2623,2624,,,,7,1
w10129997JBB,8pugqmnlxh,"Mediated JOLs",1,35,2023-11-06T17:29:40+00:00,2.4598710536957,4,versionB_stim.csv,JOLVersion.csv,JOL,JOL2,KNOB,WINDOW,Study2,M,19,40,JOL,User,-,"How likely are you to correctly recall the second item in the pair?|Type your response on a scale from 0-100 and then press Enter.",Study/JOL,"Study Phase",2262,,,2130,2130,,,,7,1
w10129997JBB,8pugqmnlxh,"Mediated JOLs",1,36,2023-11-06T17:29:46+00:00,5.1826548576355,4,versionB_stim.csv,JOLVersion.csv,JOL,JOL2,CACTUS,PLANT,Study2,F,21,18,JOL,User,-,"How likely are you to correctly recall the second item in the pair?|Type your response on a scale from 0-100 and then press Enter.",Study/JOL,"Study Phase",4991,,,4449,4752,,,,100,1
w10129997JBB,8pugqmnlxh,"Mediated JOLs",1,37,2023-11-06T17:29:50+00:00,4.0014350414276,4,versionB_stim.csv,JOLVersion.csv,JOL,JOL2,WASP,BUG,Study2,F,34,11,JOL,User,-,"How likely are you to correctly recall the second item in the pair?|Type your response on a scale from 0-100 and then press Enter.",Study/JOL,"Study Phase",3818,,,3007,3430,,,,100,1
w10129997JBB,8pugqmnlxh,"Mediated JOLs",1,38,2023-11-06T17:29:51+00:00,1.5996849536896,4,versionB_stim.csv,JOLVersion.csv,JOL,JOL2,LEAGUE,BASEBALL,Study2,F,29,20,JOL,User,-,"How likely are you to correctly recall the second item in the pair?|Type your response on a scale from 0-100 and then press Enter.",Study/JOL,"Study Phase",1430,,,904,1246,,,,100,1
w10129997JBB,8pugqmnlxh,"Mediated JOLs",1,39,2023-11-06T17:29:55+00:00,3.3919529914856,4,versionB_stim.csv,JOLVersion.csv,JOL,JOL2,COLLAR,PANTS,Study2,M,8,51,JOL,User,-,"How likely are you to correctly recall the second item in the pair?|Type your response on a scale from 0-100 and then press Enter.",Study/JOL,"Study Phase",3207,,,2257,2412,,,,31,1
w10129997JBB,8pugqmnlxh,"Mediated JOLs",1,40,2023-11-06T17:30:00+00:00,4.9996991157532,4,versionB_stim.csv,JOLVersion.csv,JOL,JOL2,STRONG,ACCIDENT,Study2,U,39,24,JOL,User,-,"How likely are you to correctly recall the second item in the pair?|Type your response on a scale from 0-100 and then press Enter.",Study/JOL,"Study Phase",4814,,,2265,4606,,,,18,1
w10129997JBB,8pugqmnlxh,"Mediated JOLs",1,41,2023-11-06T17:30:02+00:00,2.6904718875885,4,versionB_stim.csv,JOLVersion.csv,JOL,JOL2,MIRROR,CHILDREN,Study2,U,49,7,JOL,User,-,"How likely are you to correctly recall the second item in the pair?|Type your response on a scale from 0-100 and then press Enter.",Study/JOL,"Study Phase",2534,,,2407,2409,,,,2,1
w10129997JBB,8pugqmnlxh,"Mediated JOLs",1,42,2023-11-06T17:30:04+00:00,2.1906299591064,4,versionB_stim.csv,JOLVersion.csv,JOL,JOL2,HORNET,STING,Study2,F,30,23,JOL,User,-,"How likely are you to correctly recall the second item in the pair?|Type your response on a scale from 0-100 and then press Enter.",Study/JOL,"Study Phase",1986,,,1672,1808,,,,99,1
w10129997JBB,8pugqmnlxh,"Mediated JOLs",1,43,2023-11-06T17:30:09+00:00,4.6377429962158,4,versionB_stim.csv,JOLVersion.csv,JOL,JOL2,BENCH,HORN,Study2,U,43,15,JOL,User,-,"How likely are you to correctly recall the second item in the pair?|Type your response on a scale from 0-100 and then press Enter.",Study/JOL,"Study Phase",4457,,,3636,3782,,,,21,1
w10129997JBB,8pugqmnlxh,"Mediated JOLs",1,44,2023-11-06T17:30:17+00:00,7.61292719841,4,versionB_stim.csv,JOLVersion.csv,JOL,JOL2,ATTIRE,CLOTHES,Study2,F,24,50,JOL,User,-,"How likely are you to correctly recall the second item in the pair?|Type your response on a scale from 0-100 and then press Enter.",Study/JOL,"Study Phase",7425,,,6289,6445,,,,98,1
w10129997JBB,8pugqmnlxh,"Mediated JOLs",1,45,2023-11-06T17:30:21+00:00,4.4236149787903,4,versionB_stim.csv,JOLVersion.csv,JOL,JOL2,BASKET,OVEN,Study2,M,16,27,JOL,User,-,"How likely are you to correctly recall the second item in the pair?|Type your response on a scale from 0-100 and then press Enter.",Study/JOL,"Study Phase",4226,,,3701,3721,,,,54,1
w10129997JBB,8pugqmnlxh,"Mediated JOLs",1,46,2023-11-06T17:30:23+00:00,1.9483349323273,4,versionB_stim.csv,JOLVersion.csv,JOL,JOL2,HAPPY,CAR,Study2,U,37,13,JOL,User,-,"How likely are you to correctly recall the second item in the pair?|Type your response on a scale from 0-100 and then press Enter.",Study/JOL,"Study Phase",1749,,,1547,1616,,,,12,1
w10129997JBB,8pugqmnlxh,"Mediated JOLs",1,47,2023-11-06T17:30:25+00:00,1.8352360725403,4,versionB_stim.csv,JOLVersion.csv,JOL,JOL2,MUSCLE,RAZOR,Study2,M,20,16,JOL,User,-,"How likely are you to correctly recall the second item in the pair?|Type your response on a scale from 0-100 and then press Enter.",Study/JOL,"Study Phase",1652,,,1171,1372,,,,31,1
w10129997JBB,8pugqmnlxh,"Mediated JOLs",1,48,2023-11-06T17:30:27+00:00,2.2785558700562,4,versionB_stim.csv,JOLVersion.csv,JOL,JOL2,CASH,LEG,Study2,U,50,26,JOL,User,-,"How likely are you to correctly recall the second item in the pair?|Type your response on a scale from 0-100 and then press Enter.",Study/JOL,"Study Phase",2087,,,1691,1812,,,,12,1
w10129997JBB,8pugqmnlxh,"Mediated JOLs",1,49,2023-11-06T17:30:29+00:00,1.4366791248322,4,versionB_stim.csv,JOLVersion.csv,JOL,JOL2,SUGAR,RIDDLE,Study2,U,40,10,JOL,User,-,"How likely are you to correctly recall the second item in the pair?|Type your response on a scale from 0-100 and then press Enter.",Study/JOL,"Study Phase",1251,,,1141,1141,,,,2,1
w10129997JBB,8pugqmnlxh,"Mediated JOLs",1,50,2023-11-06T17:30:32+00:00,3.1387808322906,4,versionB_stim.csv,JOLVersion.csv,JOL,JOL2,LAWYER,NURSE,Study2,M,11,43,JOL,User,-,"How likely are you to correctly recall the second item in the pair?|Type your response on a scale from 0-100 and then press Enter.",Study/JOL,"Study Phase",2795,,,2409,2551,,,,76,1
w10129997JBB,8pugqmnlxh,"Mediated JOLs",1,51,2023-11-06T17:30:34+00:00,2.2943530082703,4,versionB_stim.csv,JOLVersion.csv,JOL,JOL2,PUSH,CLUTTER,Study2,U,41,41,JOL,User,-,"How likely are you to correctly recall the second item in the pair?|Type your response on a scale from 0-100 and then press Enter.",Study/JOL,"Study Phase",2097,,,1953,1953,,,,3,1
w10129997JBB,8pugqmnlxh,"Mediated JOLs",1,52,2023-11-06T17:30:37+00:00,2.8770840167999,4,versionB_stim.csv,JOLVersion.csv,JOL,JOL2,STOP,SCHOOL,Study2,M,7,9,JOL,User,-,"How likely are you to correctly recall the second item in the pair?|Type your response on a scale from 0-100 and then press Enter.",Study/JOL,"Study Phase",2682,,,2097,2505,,,,65,1
w10129997JBB,8pugqmnlxh,"Mediated JOLs",1,53,2023-11-06T17:30:39+00:00,2.128879070282,4,versionB_stim.csv,JOLVersion.csv,JOL,JOL2,SEED,RAKE,Study2,M,14,48,JOL,User,-,"How likely are you to correctly recall the second item in the pair?|Type your response on a scale from 0-100 and then press Enter.",Study/JOL,"Study Phase",1934,,,1590,1822,,,,56,1
w10129997JBB,8pugqmnlxh,"Mediated JOLs",1,54,2023-11-06T17:30:43+00:00,3.8632478713989,4,versionB_stim.csv,JOLVersion.csv,JOL,JOL2,KING,VASE,Study2,U,36,17,JOL,User,-,"How likely are you to correctly recall the second item in the pair?|Type your response on a scale from 0-100 and then press Enter.",Study/JOL,"Study Phase",3667,,,3545,3545,,,,5,1
w10129997JBB,8pugqmnlxh,"Mediated JOLs",1,55,2023-11-06T17:30:45+00:00,1.6006441116333,4,versionB_stim.csv,JOLVersion.csv,JOL,JOL2,BOTH,OUNCE,Study2,U,47,44,JOL,User,-,"How likely are you to correctly recall the second item in the pair?|Type your response on a scale from 0-100 and then press Enter.",Study/JOL,"Study Phase",1445,,,1339,1339,,,,8,1
w10129997JBB,8pugqmnlxh,"Mediated JOLs",1,56,2023-11-06T17:30:47+00:00,2.7462940216064,4,versionB_stim.csv,JOLVersion.csv,JOL,JOL2,PITCHER,CATCHER,BUFFER1,Buffer,57,57,JOL,User,-,"How likely are you to correctly recall the second item in the pair?|Type your response on a scale from 0-100 and then press Enter.",Study/JOL,BUFFER2,2558,,,1924,2356,,,,100,1
w10129997JBB,8pugqmnlxh,"Mediated JOLs",1,57,2023-11-06T17:30:50+00:00,2.9862830638885,4,versionB_stim.csv,JOLVersion.csv,JOL,JOL2,SCARE,FRIGHT,BUFFER1,Buffer,59,61,JOL,User,-,"How likely are you to correctly recall the second item in the pair?|Type your response on a scale from 0-100 and then press Enter.",Study/JOL,BUFFER2,2790,,,2121,2565,,,,100,1
w10129997JBB,8pugqmnlxh,"Mediated JOLs",1,58,2023-11-06T17:30:52+00:00,1.7056179046631,4,versionB_stim.csv,JOLVersion.csv,JOL,JOL2,GEESE,GOOSE,BUFFER2,Buffer,106,107,JOL,User,-,"How likely are you to correctly recall the second item in the pair?|Type your response on a scale from 0-100 and then press Enter.",Study/JOL,BUFFER2,1488,,,961,1254,,,,100,1
w10129997JBB,8pugqmnlxh,"Mediated JOLs",1,59,2023-11-06T17:30:53+00:00,1.4133999347687,4,versionB_stim.csv,JOLVersion.csv,JOL,JOL2,ICE,FROZEN,BUFFER4,Buffer,54,54,JOL,User,-,"How likely are you to correctly recall the second item in the pair?|Type your response on a scale from 0-100 and then press Enter.",Study/JOL,BUFFER2,1224,,,771,1019,,,,100,1
w10129997JBB,8pugqmnlxh,"Mediated JOLs",1,60,2023-11-06T17:30:55+00:00,1.5600340366364,4,versionB_stim.csv,JOLVersion.csv,JOL,JOL2,PEANUT,BUTTER,BUFFER1,Buffer,58,59,JOL,User,-,"How likely are you to correctly recall the second item in the pair?|Type your response on a scale from 0-100 and then press Enter.",Study/JOL,BUFFER2,1369,,,850,1166,,,,100,1
w10129997JBB,8pugqmnlxh,"Mediated JOLs",1,61,2023-11-06T17:30:57+00:00,2.0939209461212,4,versionB_stim.csv,JOLVersion.csv,JOL,JOL2,,,,,,0,Instruct,User,-,"You have completed this section. Please press Enter.",Filler_Instruction,Instruct2,1904,,,-1,-1,,,,,1
w10129997JBB,8pugqmnlxh,"Mediated JOLs",1,62,2023-11-06T17:32:57+00:00,120.3457570076,4,versionB_stim.csv,JOLVersion.csv,JOL,JOL2,,,,,,0,FreeRecall,120,120,"Please list the 50 US states in alphabetical order. The task will automatically advance to the next screen after two minutes.",,Filler1,120005,"AL|Alabama AK|Alaska AZ|Arizona AR|Arkansas CA|California CO|Colorado CT|Connecticut DE|Delaware FL|Florida GA|Georgia HI|Hawaii ID|Idaho IL|Illinois IN|Indiana IA|Iowa KS|Kansas KY|Kentucky LA|Louisiana ME|Maine MD|Maryland MA|Massachusetts MI|Michigan MN|Minnesota MS|Mississippi MO|Missouri MT|Montana NE|Nebraska NV|Nevada NH|New Hampshire NJ|New Jersey NM|New Mexico NY|New York NC|North Carolina ND|North Dakota OH|Ohio OK|Oklahoma OR|Oregon PA|Pennsylvania RI|Rhode Island SC|South Carolina SD|South Dakota TN|Tennessee TX|Texas UT|Utah VT|Vermont VA|Virginia WA|Washington WV|West Virginia WI|Wisconsin WY|Wyoming",0,-1,-1,0,0,,,0.945
w10129997JBB,8pugqmnlxh,"Mediated JOLs",1,63,2023-11-06T17:33:09+00:00,11.426074028015,4,versionB_stim.csv,JOLVersion.csv,JOL,JOL2,,,,,,0,Instruct,-,10,"You will now be presented with the first word from each of the previously studied item pairs. Please type the missing word. If you do not know the word, you may guess or press Enter to skip forward to the next pair.",,Instruct3,11202,,,-1,-1,,,,,1
w10129997JBB,8pugqmnlxh,"Mediated JOLs",1,64,2023-11-06T17:33:13+00:00,4.5665740966797,4,versionB_stim.csv,JOLVersion.csv,JOL,JOL2,THIGH,GRILL,Study2,M,17,39,Test,User,-,,Recall,Recall1,4359,grill,100,2267,2796,1,1,,,1
w10129997JBB,8pugqmnlxh,"Mediated JOLs",1,65,2023-11-06T17:33:20+00:00,6.8668029308319,4,versionB_stim.csv,JOLVersion.csv,JOL,JOL2,CHOP,CUT,Study2,F,22,33,Test,User,-,,Recall,Recall1,6620,pork,0,2604,5925,0,0,,,1
w10129997JBB,8pugqmnlxh,"Mediated JOLs",1,66,2023-11-06T17:33:24+00:00,3.4313781261444,4,versionB_stim.csv,JOLVersion.csv,JOL,JOL2,KING,VASE,Study2,U,36,17,Test,User,-,,Recall,Recall1,3192,quilt,0,2095,3032,0,0,,,1
w10129997JBB,8pugqmnlxh,"Mediated JOLs",1,67,2023-11-06T17:33:26+00:00,1.9380719661713,4,versionB_stim.csv,JOLVersion.csv,JOL,JOL2,HORNET,STING,Study2,F,30,23,Test,User,-,,Recall,Recall1,1749,sting,100,1268,1609,1,1,,,1
w10129997JBB,8pugqmnlxh,"Mediated JOLs",1,68,2023-11-06T17:33:28+00:00,2.379695892334,4,versionB_stim.csv,JOLVersion.csv,JOL,JOL2,WASP,BUG,Study2,F,34,11,Test,User,-,,Recall,Recall1,2189,sting,25,1652,1999,0,0,,,1
w10129997JBB,8pugqmnlxh,"Mediated JOLs",1,69,2023-11-06T17:33:31+00:00,2.5877599716187,4,versionB_stim.csv,JOLVersion.csv,JOL,JOL2,CASH,LEG,Study2,U,50,26,Test,User,-,,Recall,Recall1,2392,money,25,1733,2208,0,0,,,1
w10129997JBB,8pugqmnlxh,"Mediated JOLs",1,70,2023-11-06T17:33:36+00:00,5.0079760551453,4,versionB_stim.csv,JOLVersion.csv,JOL,JOL2,ART,WOLF,Study2,U,38,29,Test,User,-,,Recall,Recall1,4806,literature,14.285714285714,3685,4713,0,0,,,1
w10129997JBB,8pugqmnlxh,"Mediated JOLs",1,71,2023-11-06T17:33:37+00:00,1.8591709136963,4,versionB_stim.csv,JOLVersion.csv,JOL,JOL2,SEED,RAKE,Study2,M,14,48,Test,User,-,,Recall,Recall1,1669,rake,100,1250,1539,1,1,,,1
w10129997JBB,8pugqmnlxh,"Mediated JOLs",1,72,2023-11-06T17:33:40+00:00,2.1757471561432,4,versionB_stim.csv,JOLVersion.csv,JOL,JOL2,MUSCLE,RAZOR,Study2,M,20,16,Test,User,-,,Recall,Recall1,1975,arm,50,1618,1824,0,0,,,1
w10129997JBB,8pugqmnlxh,"Mediated JOLs",1,73,2023-11-06T17:33:43+00:00,3.5458810329437,4,versionB_stim.csv,JOLVersion.csv,JOL,JOL2,LEASE,TOIL,Study2,U,46,32,Test,User,-,,Recall,Recall1,3327,land,25,1542,1812,0,0,,,1
w10129997JBB,8pugqmnlxh,"Mediated JOLs",1,74,2023-11-06T17:33:46+00:00,3.104542016983,4,versionB_stim.csv,JOLVersion.csv,JOL,JOL2,HERD,COW,Study2,F,33,35,Test,User,-,,Recall,Recall1,2902,cows,85.714285714286,1648,2806,0,1,,,1
w10129997JBB,8pugqmnlxh,"Mediated JOLs",1,75,2023-11-06T17:33:51+00:00,4.7689998149872,4,versionB_stim.csv,JOLVersion.csv,JOL,JOL2,SNOW,SUMMER,Study2,M,6,34,Test,User,-,,Recall,Recall1,4579,cold,0,2182,4280,0,0,,,1
w10129997JBB,8pugqmnlxh,"Mediated JOLs",1,76,2023-11-06T17:33:53+00:00,2.1869451999664,4,versionB_stim.csv,JOLVersion.csv,JOL,JOL2,PUSH,CLUTTER,Study2,U,41,41,Test,User,-,,Recall,Recall1,2001,shove,16.666666666667,1197,1868,0,0,,,1
w10129997JBB,8pugqmnlxh,"Mediated JOLs",1,77,2023-11-06T17:33:55+00:00,2.1203699111938,4,versionB_stim.csv,JOLVersion.csv,JOL,JOL2,STOP,SCHOOL,Study2,M,7,9,Test,User,-,,Recall,Recall1,1923,school,100,943,1706,1,1,,,1
w10129997JBB,8pugqmnlxh,"Mediated JOLs",1,78,2023-11-06T17:34:00+00:00,4.3484530448914,4,versionB_stim.csv,JOLVersion.csv,JOL,JOL2,STRONG,ACCIDENT,Study2,U,39,24,Test,User,-,,Recall,Recall1,4152,big,18.181818181818,3825,3990,0,0,,,1
w10129997JBB,8pugqmnlxh,"Mediated JOLs",1,79,2023-11-06T17:34:02+00:00,2.6095130443573,4,versionB_stim.csv,JOLVersion.csv,JOL,JOL2,CHISEL,HAMMER,Study2,F,23,25,Test,User,-,,Recall,Recall1,2420,shovel,33.333333333333,1684,2232,0,0,,,1
w10129997JBB,8pugqmnlxh,"Mediated JOLs",1,80,2023-11-06T17:34:04+00:00,1.7073547840118,4,versionB_stim.csv,JOLVersion.csv,JOL,JOL2,DOCUMENT,PAPER,Study2,F,27,22,Test,User,-,,Recall,Recall1,1504,paper,100,1029,1415,1,1,,,1
w10129997JBB,8pugqmnlxh,"Mediated JOLs",1,81,2023-11-06T17:34:06+00:00,1.6427481174469,4,versionB_stim.csv,JOLVersion.csv,JOL,JOL2,BRIDGE,WATER,Study2,F,35,46,Test,User,-,,Recall,Recall1,1467,warter,90.909090909091,923,1377,0,1,,,1
w10129997JBB,8pugqmnlxh,"Mediated JOLs",1,82,2023-11-06T17:34:10+00:00,4.0137388706207,4,versionB_stim.csv,JOLVersion.csv,JOL,JOL2,CACTUS,PLANT,Study2,F,21,18,Test,User,-,,Recall,Recall1,3805,plant,100,3082,3520,1,1,,,1
w10129997JBB,8pugqmnlxh,"Mediated JOLs",1,83,2023-11-06T17:34:12+00:00,2.3428630828857,4,versionB_stim.csv,JOLVersion.csv,JOL,JOL2,CAVE,TRAP,Study2,M,15,37,Test,User,-,,Recall,Recall1,2153,trap,100,1064,1896,1,1,,,1
w10129997JBB,8pugqmnlxh,"Mediated JOLs",1,84,2023-11-06T17:34:14+00:00,2.4309320449829,4,versionB_stim.csv,JOLVersion.csv,JOL,JOL2,BENCH,HORN,Study2,U,43,15,Test,User,-,,Recall,Recall1,2240,seat,0,1641,2077,0,0,,,1
w10129997JBB,8pugqmnlxh,"Mediated JOLs",1,85,2023-11-06T17:34:17+00:00,2.6472949981689,4,versionB_stim.csv,JOLVersion.csv,JOL,JOL2,SMELL,EYES,Study2,M,10,14,Test,User,-,,Recall,Recall1,2454,sight,22.222222222222,1825,2192,0,0,,,1
w10129997JBB,8pugqmnlxh,"Mediated JOLs",1,86,2023-11-06T17:34:20+00:00,2.8028249740601,4,versionB_stim.csv,JOLVersion.csv,JOL,JOL2,HAPPY,CAR,Study2,U,37,13,Test,User,-,,Recall,Recall1,2773,joyful,0,1679,2522,0,0,,,1
w10129997JBB,8pugqmnlxh,"Mediated JOLs",1,87,2023-11-06T17:34:22+00:00,1.7161419391632,4,versionB_stim.csv,JOLVersion.csv,JOL,JOL2,CHILL,COLD,Study2,F,32,8,Test,User,-,,Recall,Recall1,1504,cold,100,951,1278,1,1,,,1
w10129997JBB,8pugqmnlxh,"Mediated JOLs",1,88,2023-11-06T17:34:26+00:00,4.7954480648041,4,versionB_stim.csv,JOLVersion.csv,JOL,JOL2,ISLAND,REALITY,Study2,M,9,38,Test,User,-,,Recall,Recall1,4625,resort,46.153846153846,2991,4510,0,0,,,1
w10129997JBB,8pugqmnlxh,"Mediated JOLs",1,89,2023-11-06T17:34:29+00:00,2.925369977951,4,versionB_stim.csv,JOLVersion.csv,JOL,JOL2,PEAK,VALLEY,Study2,M,18,28,Test,User,-,,Recall,Recall1,2739,mountain,14.285714285714,1584,2493,0,0,,,1
w10129997JBB,8pugqmnlxh,"Mediated JOLs",1,90,2023-11-06T17:34:32+00:00,2.2298669815063,4,versionB_stim.csv,JOLVersion.csv,JOL,JOL2,ATTIRE,CLOTHES,Study2,F,24,50,Test,User,-,,Recall,Recall1,2044,clothes,100,1076,1901,1,1,,,1
w10129997JBB,8pugqmnlxh,"Mediated JOLs",1,91,2023-11-06T17:34:34+00:00,2.6807680130005,4,versionB_stim.csv,JOLVersion.csv,JOL,JOL2,DRINK,SOAP,Study2,M,12,30,Test,User,-,,Recall,Recall1,2518,water,22.222222222222,1608,2300,0,0,,,1
w10129997JBB,8pugqmnlxh,"Mediated JOLs",1,92,2023-11-06T17:34:36+00:00,2.1778869628906,4,versionB_stim.csv,JOLVersion.csv,JOL,JOL2,DIETARY,SACK,Study2,U,42,21,Test,User,-,,Recall,Recall1,1987,food,0,1564,1864,0,0,,,1
w10129997JBB,8pugqmnlxh,"Mediated JOLs",1,93,2023-11-06T17:34:43+00:00,6.3130571842194,4,versionB_stim.csv,JOLVersion.csv,JOL,JOL2,BASKET,OVEN,Study2,M,16,27,Test,User,-,,Recall,Recall1,6117,tote,50,5728,6029,0,0,,,1
w10129997JBB,8pugqmnlxh,"Mediated JOLs",1,94,2023-11-06T17:34:45+00:00,2.4346358776093,4,versionB_stim.csv,JOLVersion.csv,JOL,JOL2,FEATHER,HEAVY,Study2,M,13,19,Test,User,-,,Recall,Recall1,2247,heavy,100,1464,1993,1,1,,,1
w10129997JBB,8pugqmnlxh,"Mediated JOLs",1,95,2023-11-06T17:34:47+00:00,2.1061840057373,4,versionB_stim.csv,JOLVersion.csv,JOL,JOL2,BOTH,OUNCE,Study2,U,47,44,Test,User,-,,Recall,Recall1,1913,few,25,1411,1787,0,0,,,1
w10129997JBB,8pugqmnlxh,"Mediated JOLs",1,96,2023-11-06T17:34:50+00:00,2.4364349842072,4,versionB_stim.csv,JOLVersion.csv,JOL,JOL2,LAWYER,NURSE,Study2,M,11,43,Test,User,-,,Recall,Recall1,2246,nurse,100,1516,2078,1,1,,,1
w10129997JBB,8pugqmnlxh,"Mediated JOLs",1,97,2023-11-06T17:34:54+00:00,4.1864559650421,4,versionB_stim.csv,JOLVersion.csv,JOL,JOL2,KNOB,WINDOW,Study2,M,19,40,Test,User,-,,Recall,Recall1,3995,wall,20,1638,3413,0,0,,,1
w10129997JBB,8pugqmnlxh,"Mediated JOLs",1,98,2023-11-06T17:34:58+00:00,3.6159760951996,4,versionB_stim.csv,JOLVersion.csv,JOL,JOL2,COLLAR,PANTS,Study2,M,8,51,Test,User,-,,Recall,Recall1,3427,shorts,36.363636363636,1619,3249,0,0,,,1
w10129997JBB,8pugqmnlxh,"Mediated JOLs",1,99,2023-11-06T17:35:02+00:00,4.7893340587616,4,versionB_stim.csv,JOLVersion.csv,JOL,JOL2,ARTERY,BRONZE,Study2,U,48,49,Test,User,-,,Recall,Recall1,4586,body,40,4103,4392,0,0,,,1
w10129997JBB,8pugqmnlxh,"Mediated JOLs",1,100,2023-11-06T17:35:04+00:00,1.7426798343658,4,versionB_stim.csv,JOLVersion.csv,JOL,JOL2,CHERRY,RED,Study2,F,25,12,Test,User,-,,Recall,Recall1,1565,red,100,1128,1428,1,1,,,1
w10129997JBB,8pugqmnlxh,"Mediated JOLs",1,101,2023-11-06T17:35:07+00:00,2.490159034729,4,versionB_stim.csv,JOLVersion.csv,JOL,JOL2,INCENSE,SMELL,Study2,F,28,36,Test,User,-,,Recall,Recall1,2304,smell,100,1651,2118,1,1,,,1
w10129997JBB,8pugqmnlxh,"Mediated JOLs",1,102,2023-11-06T17:35:09+00:00,2.402302980423,4,versionB_stim.csv,JOLVersion.csv,JOL,JOL2,LEAGUE,BASEBALL,Study2,F,29,20,Test,User,-,,Recall,Recall1,2210,baseball,100,1069,1885,1,1,,,1
w10129997JBB,8pugqmnlxh,"Mediated JOLs",1,103,2023-11-06T17:35:16+00:00,7.2625529766083,4,versionB_stim.csv,JOLVersion.csv,JOL,JOL2,SICK,HIDE,Study2,U,45,45,Test,User,-,,Recall,Recall1,7071,cough,22.222222222222,4557,6856,0,0,,,1
w10129997JBB,8pugqmnlxh,"Mediated JOLs",1,104,2023-11-06T17:35:21+00:00,5.1195499897003,4,versionB_stim.csv,JOLVersion.csv,JOL,JOL2,SUGAR,RIDDLE,Study2,U,40,10,Test,User,-,,Recall,Recall1,4918,food,20,4483,4774,0,0,,,1
w10129997JBB,8pugqmnlxh,"Mediated JOLs",1,105,2023-11-06T17:35:25+00:00,3.6415309906006,4,versionB_stim.csv,JOLVersion.csv,JOL,JOL2,MIRROR,CHILDREN,Study2,U,49,7,Test,User,-,,Recall,Recall1,3474,child,76.923076923077,1158,1447,0,1,,,1
w10129997JBB,8pugqmnlxh,"Mediated JOLs",1,106,2023-11-06T17:35:28+00:00,3.0606470108032,4,versionB_stim.csv,JOLVersion.csv,JOL,JOL2,DEATH,BUSINESS,Study2,U,44,42,Test,User,-,,Recall,Recall1,2874,illness,66.666666666667,1873,2750,0,0,,,1
w10129997JBB,8pugqmnlxh,"Mediated JOLs",1,107,2023-11-06T17:35:30+00:00,2.2933101654053,4,versionB_stim.csv,JOLVersion.csv,JOL,JOL2,FEUD,FIGHT,Study2,F,31,31,Test,User,-,,Recall,Recall1,2097,family,36.363636363636,1034,1646,0,0,,,1
w10129997JBB,8pugqmnlxh,"Mediated JOLs",1,108,2023-11-06T17:35:33+00:00,2.4220750331879,4,versionB_stim.csv,JOLVersion.csv,JOL,JOL2,BLAZE,FIRE,Study2,F,26,47,Test,User,-,,Recall,Recall1,2228,fire,100,1655,1964,1,1,,,1
w10129997JBB,8pugqmnlxh,"Mediated JOLs",1,109,2023-11-06T17:35:50+00:00,17.275224924088,4,versionB_stim.csv,JOLVersion.csv,JOL,JOL2,,,,,,0,Instruct,-,10,"You will now be presented with a new set of word pairs. Please study each pair. Remember that your memory will be tested! When finished, press Enter to move to the next pair.",Initial_Instruct,Instruct4,17057,,,-1,-1,,,,,1
w10129997JBB,8pugqmnlxh,"Mediated JOLs",1,110,2023-11-06T17:36:04+00:00,14.199655056,4,versionB_stim.csv,JOLVersion.csv,JOL,JOL2,,,,,,0,Instruct,,10,"You will again be asked to rate your ability to remember these items using a 0 to 100 scale. Remember to use the full range of the scale!",,Instruct10,13964,,,-1,-1,,,,,1
w10129997JBB,8pugqmnlxh,"Mediated JOLs",1,111,2023-11-06T17:36:05+00:00,1.0334827899933,4,versionB_stim.csv,JOLVersion.csv,JOL,JOL2,,,,,,0,Instruct,User,-,"Press Enter when you are readty to begin",,Instruct11,846,,,-1,-1,,,,,1
w10129997JBB,8pugqmnlxh,"Mediated JOLs",1,112,2023-11-06T17:36:09+00:00,3.2836720943451,4,versionB_stim.csv,JOLVersion.csv,JOL,JOL2,MOON,SPACE,BUFFER2,Buffer,109,108,JOL,User,-,"How likely are you to correctly recall the second item in the pair?|Type your response on a scale from 0-100 and then press Enter.",Study/JOL,BUFFER2,3087,,,2635,2887,,,,100,1
w10129997JBB,8pugqmnlxh,"Mediated JOLs",1,113,2023-11-06T17:36:11+00:00,2.6026690006256,4,versionB_stim.csv,JOLVersion.csv,JOL,JOL2,CARROT,POTATO,BUFFER4,Buffer,51,53,JOL,User,-,"How likely are you to correctly recall the second item in the pair?|Type your response on a scale from 0-100 and then press Enter.",Study/JOL,BUFFER2,2422,,,1813,1933,,,,50,1
w10129997JBB,8pugqmnlxh,"Mediated JOLs",1,114,2023-11-06T17:36:14+00:00,2.6744940280914,4,versionB_stim.csv,JOLVersion.csv,JOL,JOL2,CAMP,ADVENTURE,BUFFER4,Buffer,55,52,JOL,User,-,"How likely are you to correctly recall the second item in the pair?|Type your response on a scale from 0-100 and then press Enter.",Study/JOL,BUFFER2,2469,,,2084,2208,,,,40,1
w10129997JBB,8pugqmnlxh,"Mediated JOLs",1,115,2023-11-06T17:36:16+00:00,2.1318299770355,4,versionB_stim.csv,JOLVersion.csv,JOL,JOL2,SHERRIF,POLICE,BUFFER2,Buffer,107,110,JOL,User,-,"How likely are you to correctly recall the second item in the pair?|Type your response on a scale from 0-100 and then press Enter.",Study/JOL,BUFFER2,1946,,,1409,1718,,,,100,1
w10129997JBB,8pugqmnlxh,"Mediated JOLs",1,116,2023-11-06T17:36:18+00:00,2.2797710895538,4,versionB_stim.csv,JOLVersion.csv,JOL,JOL2,MALT,CHOCOLATE,BUFFER2,Buffer,108,109,JOL,User,-,"How likely are you to correctly recall the second item in the pair?|Type your response on a scale from 0-100 and then press Enter.",Study/JOL,BUFFER2,2080,,,1696,1856,,,,99,1
w10129997JBB,8pugqmnlxh,"Mediated JOLs",1,117,2023-11-06T17:36:20+00:00,1.7358379364014,4,versionB_stim.csv,JOLVersion.csv,JOL,JOL2,FUZZY,BANG,Study1,U,105,64,JOL,User,-,"How likely are you to correctly recall the second item in the pair?|Type your response on a scale from 0-100 and then press Enter.",Study/JOL,"Study Phase2",1535,,,1386,1387,,,,1,1
w10129997JBB,8pugqmnlxh,"Mediated JOLs",1,118,2023-11-06T17:36:22+00:00,2.3967840671539,4,versionB_stim.csv,JOLVersion.csv,JOL,JOL2,SCALP,HEAD,Study1,F,78,83,JOL,User,-,"How likely are you to correctly recall the second item in the pair?|Type your response on a scale from 0-100 and then press Enter.",Study/JOL,"Study Phase2",2211,,,1867,2028,,,,98,1
w10129997JBB,8pugqmnlxh,"Mediated JOLs",1,119,2023-11-06T17:36:24+00:00,2.0192358493805,4,versionB_stim.csv,JOLVersion.csv,JOL,JOL2,PIE,BIRTHDAY,Study1,M,64,98,JOL,User,-,"How likely are you to correctly recall the second item in the pair?|Type your response on a scale from 0-100 and then press Enter.",Study/JOL,"Study Phase2",1822,,,1464,1611,,,,98,1
w10129997JBB,8pugqmnlxh,"Mediated JOLs",1,120,2023-11-06T17:36:27+00:00,2.4235370159149,4,versionB_stim.csv,JOLVersion.csv,JOL,JOL2,WHEEL,HORSE,Study1,M,69,82,JOL,User,-,"How likely are you to correctly recall the second item in the pair?|Type your response on a scale from 0-100 and then press Enter.",Study/JOL,"Study Phase2",2227,,,1993,1993,,,,3,1
w10129997JBB,8pugqmnlxh,"Mediated JOLs",1,121,2023-11-06T17:36:30+00:00,3.1970241069794,4,versionB_stim.csv,JOLVersion.csv,JOL,JOL2,DARK,DAY,Study1,M,73,72,JOL,User,-,"How likely are you to correctly recall the second item in the pair?|Type your response on a scale from 0-100 and then press Enter.",Study/JOL,"Study Phase2",3006,,,2531,2805,,,,88,1
w10129997JBB,8pugqmnlxh,"Mediated JOLs",1,122,2023-11-06T17:36:32+00:00,2.3732628822327,4,versionB_stim.csv,JOLVersion.csv,JOL,JOL2,MIRROR,MAROON,Study1,U,91,93,JOL,User,-,"How likely are you to correctly recall the second item in the pair?|Type your response on a scale from 0-100 and then press Enter.",Study/JOL,"Study Phase2",2184,,,1989,1989,,,,3,1
w10129997JBB,8pugqmnlxh,"Mediated JOLs",1,123,2023-11-06T17:36:35+00:00,2.2710120677948,4,versionB_stim.csv,JOLVersion.csv,JOL,JOL2,LITTER,TRASH,Study1,F,76,75,JOL,User,-,"How likely are you to correctly recall the second item in the pair?|Type your response on a scale from 0-100 and then press Enter.",Study/JOL,"Study Phase2",2079,,,1548,1874,,,,98,1
w10129997JBB,8pugqmnlxh,"Mediated JOLs",1,124,2023-11-06T17:36:36+00:00,1.7603149414062,4,versionB_stim.csv,JOLVersion.csv,JOL,JOL2,MULE,DONKEY,Study1,F,85,91,JOL,User,-,"How likely are you to correctly recall the second item in the pair?|Type your response on a scale from 0-100 and then press Enter.",Study/JOL,"Study Phase2",1579,,,1209,1390,,,,98,1
w10129997JBB,8pugqmnlxh,"Mediated JOLs",1,125,2023-11-06T17:36:38+00:00,1.4287569522858,4,versionB_stim.csv,JOLVersion.csv,JOL,JOL2,TUNA,FISH,Study1,F,90,105,JOL,User,-,"How likely are you to correctly recall the second item in the pair?|Type your response on a scale from 0-100 and then press Enter.",Study/JOL,"Study Phase2",1248,,,876,1068,,,,98,1
w10129997JBB,8pugqmnlxh,"Mediated JOLs",1,126,2023-11-06T17:36:43+00:00,5.2956330776215,4,versionB_stim.csv,JOLVersion.csv,JOL,JOL2,DANCE,CIRCLE,Study1,M,68,63,JOL,User,-,"How likely are you to correctly recall the second item in the pair?|Type your response on a scale from 0-100 and then press Enter.",Study/JOL,"Study Phase2",5103,,,4700,4894,,,,34,1
w10129997JBB,8pugqmnlxh,"Mediated JOLs",1,127,2023-11-06T17:36:45+00:00,1.8047330379486,4,versionB_stim.csv,JOLVersion.csv,JOL,JOL2,MULE,DONKEY,Study1,F,79,92,JOL,User,-,"How likely are you to correctly recall the second item in the pair?|Type your response on a scale from 0-100 and then press Enter.",Study/JOL,"Study Phase2",1604,,,1313,1495,,,,34,1
w10129997JBB,8pugqmnlxh,"Mediated JOLs",1,128,2023-11-06T17:36:46+00:00,1.3380770683289,4,versionB_stim.csv,JOLVersion.csv,JOL,JOL2,SHELL,SHAKE,Study1,U,98,66,JOL,User,-,"How likely are you to correctly recall the second item in the pair?|Type your response on a scale from 0-100 and then press Enter.",Study/JOL,"Study Phase2",1155,,,896,1065,,,,34,1
w10129997JBB,8pugqmnlxh,"Mediated JOLs",1,129,2023-11-06T17:36:48+00:00,2.1538548469543,4,versionB_stim.csv,JOLVersion.csv,JOL,JOL2,CARPET,CEILING,Study1,M,70,79,JOL,User,-,"How likely are you to correctly recall the second item in the pair?|Type your response on a scale from 0-100 and then press Enter.",Study/JOL,"Study Phase2",1961,,,1663,1903,,,,54,1
w10129997JBB,8pugqmnlxh,"Mediated JOLs",1,130,2023-11-06T17:36:50+00:00,1.9599041938782,4,versionB_stim.csv,JOLVersion.csv,JOL,JOL2,SIGN,TICK,Study1,U,102,95,JOL,User,-,"How likely are you to correctly recall the second item in the pair?|Type your response on a scale from 0-100 and then press Enter.",Study/JOL,"Study Phase2",1771,,,1544,1703,,,,65,1
w10129997JBB,8pugqmnlxh,"Mediated JOLs",1,131,2023-11-06T17:36:53+00:00,2.6874327659607,4,versionB_stim.csv,JOLVersion.csv,JOL,JOL2,BOUNCE,BAT,Study1,M,67,104,JOL,User,-,"How likely are you to correctly recall the second item in the pair?|Type your response on a scale from 0-100 and then press Enter.",Study/JOL,"Study Phase2",2507,,,2297,2446,,,,22,1
w10129997JBB,8pugqmnlxh,"Mediated JOLs",1,132,2023-11-06T17:36:55+00:00,1.7630250453949,4,versionB_stim.csv,JOLVersion.csv,JOL,JOL2,STRIPES,LION,Study1,M,61,101,JOL,User,-,"How likely are you to correctly recall the second item in the pair?|Type your response on a scale from 0-100 and then press Enter.",Study/JOL,"Study Phase2",1551,,,1274,1473,,,,12,1
w10129997JBB,8pugqmnlxh,"Mediated JOLs",1,133,2023-11-06T17:36:57+00:00,2.1682050228119,4,versionB_stim.csv,JOLVersion.csv,JOL,JOL2,SIP,DRINK,Study1,F,87,71,JOL,User,-,"How likely are you to correctly recall the second item in the pair?|Type your response on a scale from 0-100 and then press Enter.",Study/JOL,"Study Phase2",1971,,,1575,1803,,,,100,1
w10129997JBB,8pugqmnlxh,"Mediated JOLs",1,134,2023-11-06T17:36:59+00:00,2.1829459667206,4,versionB_stim.csv,JOLVersion.csv,JOL,JOL2,MEAT,KEYS,Study1,U,96,106,JOL,User,-,"How likely are you to correctly recall the second item in the pair?|Type your response on a scale from 0-100 and then press Enter.",Study/JOL,"Study Phase2",1980,,,1811,1811,,,,1,1
w10129997JBB,8pugqmnlxh,"Mediated JOLs",1,135,2023-11-06T17:37:01+00:00,1.8312630653381,4,versionB_stim.csv,JOLVersion.csv,JOL,JOL2,CREDIT,CARD,Study1,F,88,97,JOL,User,-,"How likely are you to correctly recall the second item in the pair?|Type your response on a scale from 0-100 and then press Enter.",Study/JOL,"Study Phase2",1641,,,1231,1498,,,,100,1
w10129997JBB,8pugqmnlxh,"Mediated JOLs",1,136,2023-11-06T17:37:02+00:00,1.3059480190277,4,versionB_stim.csv,JOLVersion.csv,JOL,JOL2,ORCHID,FLOWER,Study1,F,89,94,JOL,User,-,"How likely are you to correctly recall the second item in the pair?|Type your response on a scale from 0-100 and then press Enter.",Study/JOL,"Study Phase2",1109,,,685,940,,,,100,1
w10129997JBB,8pugqmnlxh,"Mediated JOLs",1,137,2023-11-06T17:37:04+00:00,1.4161839485168,4,versionB_stim.csv,JOLVersion.csv,JOL,JOL2,BOTTLE,CRY,Study1,M,71,69,JOL,User,-,"How likely are you to correctly recall the second item in the pair?|Type your response on a scale from 0-100 and then press Enter.",Study/JOL,"Study Phase2",1241,,,790,1056,,,,100,1
w10129997JBB,8pugqmnlxh,"Mediated JOLs",1,138,2023-11-06T17:37:06+00:00,2.0728540420532,4,versionB_stim.csv,JOLVersion.csv,JOL,JOL2,KEYS,ROD,Study1,U,100,74,JOL,User,-,"How likely are you to correctly recall the second item in the pair?|Type your response on a scale from 0-100 and then press Enter.",Study/JOL,"Study Phase2",1882,,,1594,1776,,,,32,1
w10129997JBB,8pugqmnlxh,"Mediated JOLs",1,139,2023-11-06T17:37:09+00:00,3.1330819129944,4,versionB_stim.csv,JOLVersion.csv,JOL,JOL2,TEMPERATURE,MORNING,Study1,U,103,77,JOL,User,-,"How likely are you to correctly recall the second item in the pair?|Type your response on a scale from 0-100 and then press Enter.",Study/JOL,"Study Phase2",2927,,,2589,2795,,,,76,1
w10129997JBB,8pugqmnlxh,"Mediated JOLs",1,140,2023-11-06T17:37:12+00:00,2.5738840103149,4,versionB_stim.csv,JOLVersion.csv,JOL,JOL2,CRACKLE,ELECTION,Study1,U,94,86,JOL,User,-,"How likely are you to correctly recall the second item in the pair?|Type your response on a scale from 0-100 and then press Enter.",Study/JOL,"Study Phase2",2385,,,2210,2210,,,,2,1
w10129997JBB,8pugqmnlxh,"Mediated JOLs",1,141,2023-11-06T17:37:13+00:00,1.2687959671021,4,versionB_stim.csv,JOLVersion.csv,JOL,JOL2,FINGER,WEDDING,Study1,M,72,78,JOL,User,-,"How likely are you to correctly recall the second item in the pair?|Type your response on a scale from 0-100 and then press Enter.",Study/JOL,"Study Phase2",1082,,,966,966,,,,2,1
w10129997JBB,8pugqmnlxh,"Mediated JOLs",1,142,2023-11-06T17:37:15+00:00,2.4051780700684,4,versionB_stim.csv,JOLVersion.csv,JOL,JOL2,HYGIENE,CLEAN,Study1,F,83,65,JOL,User,-,"How likely are you to correctly recall the second item in the pair?|Type your response on a scale from 0-100 and then press Enter.",Study/JOL,"Study Phase2",2221,,,1789,2024,,,,97,1
w10129997JBB,8pugqmnlxh,"Mediated JOLs",1,143,2023-11-06T17:37:18+00:00,3.2768270969391,4,versionB_stim.csv,JOLVersion.csv,JOL,JOL2,CAKE,HAND,Study1,U,104,103,JOL,User,-,"How likely are you to correctly recall the second item in the pair?|Type your response on a scale from 0-100 and then press Enter.",Study/JOL,"Study Phase2",3089,,,2778,3022,,,,334,1
w10129997JBB,8pugqmnlxh,"Mediated JOLs",1,144,2023-11-06T17:37:26+00:00,7.5527169704437,4,versionB_stim.csv,JOLVersion.csv,JOL,JOL2,SOON,BELT,Study1,U,101,85,JOL,User,-,"How likely are you to correctly recall the second item in the pair?|Type your response on a scale from 0-100 and then press Enter.",Study/JOL,"Study Phase2",7349,,,6970,7261,,,,21,1
w10129997JBB,8pugqmnlxh,"Mediated JOLs",1,145,2023-11-06T17:37:28+00:00,2.2108709812164,4,versionB_stim.csv,JOLVersion.csv,JOL,JOL2,SWAN,BIRD,Study1,F,81,67,JOL,User,-,"How likely are you to correctly recall the second item in the pair?|Type your response on a scale from 0-100 and then press Enter.",Study/JOL,"Study Phase2",1990,,,1435,1783,,,,100,1
w10129997JBB,8pugqmnlxh,"Mediated JOLs",1,146,2023-11-06T17:37:30+00:00,1.4106209278107,4,versionB_stim.csv,JOLVersion.csv,JOL,JOL2,VEHICLE,CHARM,Study1,U,95,80,JOL,User,-,"How likely are you to correctly recall the second item in the pair?|Type your response on a scale from 0-100 and then press Enter.",Study/JOL,"Study Phase2",1216,,,878,878,,,,1,1
w10129997JBB,8pugqmnlxh,"Mediated JOLs",1,147,2023-11-06T17:37:32+00:00,2.3302090167999,4,versionB_stim.csv,JOLVersion.csv,JOL,JOL2,WORD,SENTENCE,Study1,F,82,96,JOL,User,-,"How likely are you to correctly recall the second item in the pair?|Type your response on a scale from 0-100 and then press Enter.",Study/JOL,"Study Phase2",2144,,,1749,1939,,,,98,1
w10129997JBB,8pugqmnlxh,"Mediated JOLs",1,148,2023-11-06T17:37:34+00:00,2.3552491664886,4,versionB_stim.csv,JOLVersion.csv,JOL,JOL2,HAIR,TOOTH,Study1,M,74,70,JOL,User,-,"How likely are you to correctly recall the second item in the pair?|Type your response on a scale from 0-100 and then press Enter.",Study/JOL,"Study Phase2",2151,,,1739,1920,,,,87,1
w10129997JBB,8pugqmnlxh,"Mediated JOLs",1,149,2023-11-06T17:37:36+00:00,1.7776079177856,4,versionB_stim.csv,JOLVersion.csv,JOL,JOL2,SYRUP,TREE,Study1,M,66,62,JOL,User,-,"How likely are you to correctly recall the second item in the pair?|Type your response on a scale from 0-100 and then press Enter.",Study/JOL,"Study Phase2",1589,,,1185,1367,,,,87,1
w10129997JBB,8pugqmnlxh,"Mediated JOLs",1,150,2023-11-06T17:37:39+00:00,2.6487588882446,4,versionB_stim.csv,JOLVersion.csv,JOL,JOL2,WAGE,MONEY,Study1,F,77,102,JOL,User,-,"How likely are you to correctly recall the second item in the pair?|Type your response on a scale from 0-100 and then press Enter.",Study/JOL,"Study Phase2",2440,,,1333,2291,,,,85,1
w10129997JBB,8pugqmnlxh,"Mediated JOLs",1,151,2023-11-06T17:37:43+00:00,4.1018691062927,4,versionB_stim.csv,JOLVersion.csv,JOL,JOL2,QUIET,WAR,Study1,M,63,90,JOL,User,-,"How likely are you to correctly recall the second item in the pair?|Type your response on a scale from 0-100 and then press Enter.",Study/JOL,"Study Phase2",3911,,,3630,3809,,,,43,1
w10129997JBB,8pugqmnlxh,"Mediated JOLs",1,152,2023-11-06T17:37:45+00:00,2.417515039444,4,versionB_stim.csv,JOLVersion.csv,JOL,JOL2,MAZE,PHONE,Study1,U,97,89,JOL,User,-,"How likely are you to correctly recall the second item in the pair?|Type your response on a scale from 0-100 and then press Enter.",Study/JOL,"Study Phase2",2231,,,1801,2070,,,,12,1
w10129997JBB,8pugqmnlxh,"Mediated JOLs",1,153,2023-11-06T17:37:47+00:00,1.7691600322723,4,versionB_stim.csv,JOLVersion.csv,JOL,JOL2,STRETCH,CLOTH,Study1,U,92,99,JOL,User,-,"How likely are you to correctly recall the second item in the pair?|Type your response on a scale from 0-100 and then press Enter.",Study/JOL,"Study Phase2",1591,,,1220,1468,,,,14,1
w10129997JBB,8pugqmnlxh,"Mediated JOLs",1,154,2023-11-06T17:37:51+00:00,3.6481018066406,4,versionB_stim.csv,JOLVersion.csv,JOL,JOL2,ROOT,PLANT,Study1,F,80,73,JOL,User,-,"How likely are you to correctly recall the second item in the pair?|Type your response on a scale from 0-100 and then press Enter.",Study/JOL,"Study Phase2",3447,,,3047,3250,,,,87,1
w10129997JBB,8pugqmnlxh,"Mediated JOLs",1,155,2023-11-06T17:37:54+00:00,2.9455370903015,4,versionB_stim.csv,JOLVersion.csv,JOL,JOL2,AFFECTION,LOVE,Study1,F,86,88,JOL,User,-,"How likely are you to correctly recall the second item in the pair?|Type your response on a scale from 0-100 and then press Enter.",Study/JOL,"Study Phase2",2758,,,2478,2611,,,,94,1
w10129997JBB,8pugqmnlxh,"Mediated JOLs",1,156,2023-11-06T17:37:55+00:00,1.8342459201813,4,versionB_stim.csv,JOLVersion.csv,JOL,JOL2,COTTON,HARD,Study1,M,75,87,JOL,User,-,"How likely are you to correctly recall the second item in the pair?|Type your response on a scale from 0-100 and then press Enter.",Study/JOL,"Study Phase2",1636,,,1410,1410,,,,2,1
w10129997JBB,8pugqmnlxh,"Mediated JOLs",1,157,2023-11-06T17:37:57+00:00,1.1242001056671,4,versionB_stim.csv,JOLVersion.csv,JOL,JOL2,GIVE,STEAK,Study1,U,93,68,JOL,User,-,"How likely are you to correctly recall the second item in the pair?|Type your response on a scale from 0-100 and then press Enter.",Study/JOL,"Study Phase2",934,,,690,690,,,,2,1
w10129997JBB,8pugqmnlxh,"Mediated JOLs",1,158,2023-11-06T17:37:58+00:00,1.8120739459991,4,versionB_stim.csv,JOLVersion.csv,JOL,JOL2,BOX,BEACH,Study1,M,62,84,JOL,User,-,"How likely are you to correctly recall the second item in the pair?|Type your response on a scale from 0-100 and then press Enter.",Study/JOL,"Study Phase2",1580,,,1462,1463,,,,3,1
w10129997JBB,8pugqmnlxh,"Mediated JOLs",1,159,2023-11-06T17:38:00+00:00,2.0100331306458,4,versionB_stim.csv,JOLVersion.csv,JOL,JOL2,LISTEN,FICTION,Study1,U,99,100,JOL,User,-,"How likely are you to correctly recall the second item in the pair?|Type your response on a scale from 0-100 and then press Enter.",Study/JOL,"Study Phase2",1819,,,1690,1691,,,,6,1
w10129997JBB,8pugqmnlxh,"Mediated JOLs",1,160,2023-11-06T17:38:02+00:00,1.6643688678741,4,versionB_stim.csv,JOLVersion.csv,JOL,JOL2,SILK,ROUGH,Study1,M,65,76,JOL,User,-,"How likely are you to correctly recall the second item in the pair?|Type your response on a scale from 0-100 and then press Enter.",Study/JOL,"Study Phase2",1457,,,1298,1298,,,,5,1
w10129997JBB,8pugqmnlxh,"Mediated JOLs",1,161,2023-11-06T17:38:05+00:00,2.7153980731964,4,versionB_stim.csv,JOLVersion.csv,JOL,JOL2,NAP,SLEEP,Study1,F,84,81,JOL,User,-,"How likely are you to correctly recall the second item in the pair?|Type your response on a scale from 0-100 and then press Enter.",Study/JOL,"Study Phase2",2516,,,2047,2259,,,,99,1
w10129997JBB,8pugqmnlxh,"Mediated JOLs",1,162,2023-11-06T17:38:07+00:00,2.0284428596497,4,versionB_stim.csv,JOLVersion.csv,JOL,JOL2,SHRIMP,FISH,BUFFER4,Buffer,53,55,JOL,User,-,"How likely are you to correctly recall the second item in the pair?|Type your response on a scale from 0-100 and then press Enter.",Study/JOL,BUFFER2,1817,,,998,1552,,,,100,1
w10129997JBB,8pugqmnlxh,"Mediated JOLs",1,163,2023-11-06T17:38:09+00:00,1.9328091144562,4,versionB_stim.csv,JOLVersion.csv,JOL,JOL2,SPACE,JAM,BUFFER1,Buffer,60,60,JOL,User,-,"How likely are you to correctly recall the second item in the pair?|Type your response on a scale from 0-100 and then press Enter.",Study/JOL,BUFFER2,1748,,,1132,1524,,,,100,1
w10129997JBB,8pugqmnlxh,"Mediated JOLs",1,164,2023-11-06T17:38:12+00:00,3.2846639156342,4,versionB_stim.csv,JOLVersion.csv,JOL,JOL2,THING,STUFF,BUFFER2,Buffer,110,111,JOL,User,-,"How likely are you to correctly recall the second item in the pair?|Type your response on a scale from 0-100 and then press Enter.",Study/JOL,BUFFER2,3083,,,2800,2914,,,,86,1
w10129997JBB,8pugqmnlxh,"Mediated JOLs",1,165,2023-11-06T17:38:14+00:00,2.305242061615,4,versionB_stim.csv,JOLVersion.csv,JOL,JOL2,TREES,GREEN,BUFFER1,Buffer,56,58,JOL,User,-,"How likely are you to correctly recall the second item in the pair?|Type your response on a scale from 0-100 and then press Enter.",Study/JOL,BUFFER2,2092,,,1331,1994,,,,95,1
w10129997JBB,8pugqmnlxh,"Mediated JOLs",1,166,2023-11-06T17:38:18+00:00,3.4407999515533,4,versionB_stim.csv,JOLVersion.csv,JOL,JOL2,NOODLE,STRING,BUFFER4,Buffer,52,56,JOL,User,-,"How likely are you to correctly recall the second item in the pair?|Type your response on a scale from 0-100 and then press Enter.",Study/JOL,BUFFER2,3244,,,2656,3112,,,,15,1
w10129997JBB,8pugqmnlxh,"Mediated JOLs",1,167,2023-11-06T17:38:20+00:00,1.92298412323,4,versionB_stim.csv,JOLVersion.csv,JOL,JOL2,,,,,,0,Instruct,User,-,"You have completed this section. Please press Enter.",Filler_Instruction,Instruct2,1739,,,-1,-1,,,,,1
w10129997JBB,8pugqmnlxh,"Mediated JOLs",1,168,2023-11-06T17:40:20+00:00,120.32413101196,4,versionB_stim.csv,JOLVersion.csv,JOL,JOL2,,,,,,0,FreeRecall,120,120,"Please list the 50 US states in alphabetical order. The task will automatically advance to the next screen after two minutes.",,Filler1,120005,"AL|Alabama AK|Alaska AZ|Arizona AR|Arkansas CA|California CO|Colorado CT|Connecticut DE|Delaware FL|Florida GA|Georgia HI|Hawaii ID|Idaho IL|Illinois IN|Indiana IA|Iowa KS|Kansas KY|Kentucky LA|Louisiana ME|Maine MD|Maryland MA|Massachusetts MI|Michigan MN|Minnesota MS|Mississippi MO|Missouri MT|Montana NE|Nebraska NV|Nevada NH|New Hampshire NJ|New Jersey NM|New Mexico NY|New York NC|North Carolina ND|North Dakota OH|Ohio OK|Oklahoma OR|Oregon PA|Pennsylvania RI|Rhode Island SC|South Carolina SD|South Dakota TN|Tennessee TX|Texas UT|Utah VT|Vermont VA|Virginia WA|Washington WV|West Virginia WI|Wisconsin WY|Wyoming",0,-1,-1,0,0,,,1
w10129997JBB,8pugqmnlxh,"Mediated JOLs",1,169,2023-11-06T17:40:39+00:00,18.588596820831,4,versionB_stim.csv,JOLVersion.csv,JOL,JOL2,,,,,,0,Instruct,-,10,"You will now be presented with the first word from each of the previously studied item pairs. Please type the missing word. If you do not know the word, you may guess or press Enter to skip forward to the next pair.",,Instruct3,18360,,,-1,-1,,,,,1
w10129997JBB,8pugqmnlxh,"Mediated JOLs",1,170,2023-11-06T17:40:42+00:00,3.0338830947876,4,versionB_stim.csv,JOLVersion.csv,JOL,JOL2,ORCHID,FLOWER,Study1,F,89,94,Test,User,-,,Recall,Recall2,2835,flower,100,1977,2586,1,1,,,1
w10129997JBB,8pugqmnlxh,"Mediated JOLs",1,171,2023-11-06T17:40:43+00:00,1.4669620990753,4,versionB_stim.csv,JOLVersion.csv,JOL,JOL2,SCALP,HEAD,Study1,F,78,83,Test,User,-,,Recall,Recall2,1274,head,100,856,1166,1,1,,,1
w10129997JBB,8pugqmnlxh,"Mediated JOLs",1,172,2023-11-06T17:40:47+00:00,4.040552854538,4,versionB_stim.csv,JOLVersion.csv,JOL,JOL2,DARK,DAY,Study1,M,73,72,Test,User,-,,Recall,Recall2,3849,day,100,3384,3632,1,1,,,1
w10129997JBB,8pugqmnlxh,"Mediated JOLs",1,173,2023-11-06T17:40:50+00:00,2.7915830612183,4,versionB_stim.csv,JOLVersion.csv,JOL,JOL2,HAIR,TOOTH,Study1,M,74,70,Test,User,-,,Recall,Recall2,2616,head,22.222222222222,2085,2408,0,0,,,1
w10129997JBB,8pugqmnlxh,"Mediated JOLs",1,174,2023-11-06T17:40:52+00:00,2.1743960380554,4,versionB_stim.csv,JOLVersion.csv,JOL,JOL2,LITTER,TRASH,Study1,F,76,75,Test,User,-,,Recall,Recall2,1990,trash,100,1061,1812,1,1,,,1
w10129997JBB,8pugqmnlxh,"Mediated JOLs",1,175,2023-11-06T17:40:54+00:00,1.9012830257416,4,versionB_stim.csv,JOLVersion.csv,JOL,JOL2,SIGN,TICK,Study1,U,102,95,Test,User,-,,Recall,Recall2,1705,stop,25,1130,1467,0,0,,,1
w10129997JBB,8pugqmnlxh,"Mediated JOLs",1,176,2023-11-06T17:40:58+00:00,3.5601789951324,4,versionB_stim.csv,JOLVersion.csv,JOL,JOL2,CRACKLE,ELECTION,Study1,U,94,86,Test,User,-,,Recall,Recall2,3380,politics,37.5,2129,3132,0,0,,,1
w10129997JBB,8pugqmnlxh,"Mediated JOLs",1,177,2023-11-06T17:41:00+00:00,2.3514568805695,4,versionB_stim.csv,JOLVersion.csv,JOL,JOL2,BOX,BEACH,Study1,M,62,84,Test,User,-,,Recall,Recall2,2166,beach,100,1424,1837,1,1,,,1
w10129997JBB,8pugqmnlxh,"Mediated JOLs",1,178,2023-11-06T17:41:03+00:00,3.3132581710815,4,versionB_stim.csv,JOLVersion.csv,JOL,JOL2,CAKE,HAND,Study1,U,104,103,Test,User,-,,Recall,Recall2,3132,batter,20,2426,3031,0,0,,,1
w10129997JBB,8pugqmnlxh,"Mediated JOLs",1,179,2023-11-06T17:41:05+00:00,1.7488429546356,4,versionB_stim.csv,JOLVersion.csv,JOL,JOL2,WAGE,MONEY,Study1,F,77,102,Test,User,-,,Recall,Recall2,1568,money,100,945,1371,1,1,,,1
w10129997JBB,8pugqmnlxh,"Mediated JOLs",1,180,2023-11-06T17:41:07+00:00,1.7386348247528,4,versionB_stim.csv,JOLVersion.csv,JOL,JOL2,AFFECTION,LOVE,Study1,F,86,88,Test,User,-,,Recall,Recall2,1546,love,100,975,1406,1,1,,,1
w10129997JBB,8pugqmnlxh,"Mediated JOLs",1,181,2023-11-06T17:41:09+00:00,1.8367550373077,4,versionB_stim.csv,JOLVersion.csv,JOL,JOL2,CARPET,CEILING,Study1,M,70,79,Test,User,-,,Recall,Recall2,1641,floor,16.666666666667,898,1524,0,0,,,1
w10129997JBB,8pugqmnlxh,"Mediated JOLs",1,182,2023-11-06T17:41:10+00:00,1.8194491863251,4,versionB_stim.csv,JOLVersion.csv,JOL,JOL2,QUIET,WAR,Study1,M,63,90,Test,User,-,,Recall,Recall2,1627,loud,0,1137,1514,0,0,,,1
w10129997JBB,8pugqmnlxh,"Mediated JOLs",1,183,2023-11-06T17:41:14+00:00,3.7820718288422,4,versionB_stim.csv,JOLVersion.csv,JOL,JOL2,SWAN,BIRD,Study1,F,81,67,Test,User,-,,Recall,Recall2,3583,bird,100,2375,3461,1,1,,,1
w10129997JBB,8pugqmnlxh,"Mediated JOLs",1,184,2023-11-06T17:41:17+00:00,3.1604590415955,4,versionB_stim.csv,JOLVersion.csv,JOL,JOL2,VEHICLE,CHARM,Study1,U,95,80,Test,User,-,,Recall,Recall2,2961,car,75,2573,2837,0,1,,,1
w10129997JBB,8pugqmnlxh,"Mediated JOLs",1,185,2023-11-06T17:41:19+00:00,1.5161900520325,4,versionB_stim.csv,JOLVersion.csv,JOL,JOL2,TUNA,FISH,Study1,F,90,105,Test,User,-,,Recall,Recall2,1325,fish,100,876,1145,1,1,,,1
w10129997JBB,8pugqmnlxh,"Mediated JOLs",1,186,2023-11-06T17:41:21+00:00,2.0023078918457,4,versionB_stim.csv,JOLVersion.csv,JOL,JOL2,FINGER,WEDDING,Study1,M,72,78,Test,User,-,,Recall,Recall2,1809,leg,40,1455,1697,0,0,,,1
w10129997JBB,8pugqmnlxh,"Mediated JOLs",1,187,2023-11-06T17:41:23+00:00,2.4693450927734,4,versionB_stim.csv,JOLVersion.csv,JOL,JOL2,BOUNCE,BAT,Study1,M,67,104,Test,User,-,,Recall,Recall2,2281,down,0,1818,2111,0,0,,,1
w10129997JBB,8pugqmnlxh,"Mediated JOLs",1,188,2023-11-06T17:41:26+00:00,2.5363020896912,4,versionB_stim.csv,JOLVersion.csv,JOL,JOL2,WORD,SENTENCE,Study1,F,82,96,Test,User,-,,Recall,Recall2,2322,play,0,1799,2146,0,0,,,1
w10129997JBB,8pugqmnlxh,"Mediated JOLs",1,189,2023-11-06T17:41:29+00:00,3.0054547786713,4,versionB_stim.csv,JOLVersion.csv,JOL,JOL2,NAP,SLEEP,Study1,F,84,81,Test,User,-,,Recall,Recall2,2824,sleep,100,1316,2060,1,1,,,1
w10129997JBB,8pugqmnlxh,"Mediated JOLs",1,190,2023-11-06T17:41:31+00:00,2.4928631782532,4,versionB_stim.csv,JOLVersion.csv,JOL,JOL2,KEYS,ROD,Study1,U,100,74,Test,User,-,,Recall,Recall2,2308,truck,25,1556,2052,0,0,,,1
w10129997JBB,8pugqmnlxh,"Mediated JOLs",1,191,2023-11-06T17:41:33+00:00,2.0443749427795,4,versionB_stim.csv,JOLVersion.csv,JOL,JOL2,SIP,DRINK,Study1,F,87,71,Test,User,-,,Recall,Recall2,1848,drink,100,1002,1615,1,1,,,1
w10129997JBB,8pugqmnlxh,"Mediated JOLs",1,192,2023-11-06T17:41:35+00:00,1.6757619380951,4,versionB_stim.csv,JOLVersion.csv,JOL,JOL2,CREDIT,CARD,Study1,F,88,97,Test,User,-,,Recall,Recall2,1476,card,100,889,1319,1,1,,,1
w10129997JBB,8pugqmnlxh,"Mediated JOLs",1,193,2023-11-06T17:41:39+00:00,3.4199330806732,4,versionB_stim.csv,JOLVersion.csv,JOL,JOL2,MIRROR,MAROON,Study1,U,91,93,Test,User,-,,Recall,Recall2,3224,children,28.571428571429,2356,3037,0,0,,,1
w10129997JBB,8pugqmnlxh,"Mediated JOLs",1,194,2023-11-06T17:41:41+00:00,2.8665599822998,4,versionB_stim.csv,JOLVersion.csv,JOL,JOL2,MEAT,KEYS,Study1,U,96,106,Test,User,-,,Recall,Recall2,2509,food,0,1358,1639,0,0,,,1
w10129997JBB,8pugqmnlxh,"Mediated JOLs",1,195,2023-11-06T17:41:46+00:00,4.527400970459,4,versionB_stim.csv,JOLVersion.csv,JOL,JOL2,MULE,DONKEY,Study1,F,85,91,Test,User,-,,Recall,Recall2,4321,horse,36.363636363636,1071,4190,0,0,,,1
w10129997JBB,8pugqmnlxh,"Mediated JOLs",1,196,2023-11-06T17:41:48+00:00,1.9900550842285,4,versionB_stim.csv,JOLVersion.csv,JOL,JOL2,SILK,ROUGH,Study1,M,65,76,Test,User,-,,Recall,Recall2,1805,hard,22.222222222222,1380,1675,0,0,,,1
w10129997JBB,8pugqmnlxh,"Mediated JOLs",1,197,2023-11-06T17:41:52+00:00,4.2495720386505,4,versionB_stim.csv,JOLVersion.csv,JOL,JOL2,DANCE,CIRCLE,Study1,M,68,63,Test,User,-,,Recall,Recall2,4061,fun,0,3552,3852,0,0,,,1
w10129997JBB,8pugqmnlxh,"Mediated JOLs",1,198,2023-11-06T17:41:54+00:00,1.8708999156952,4,versionB_stim.csv,JOLVersion.csv,JOL,JOL2,ROOT,PLANT,Study1,F,80,73,Test,User,-,,Recall,Recall2,1669,plant,100,1115,1512,1,1,,,1
w10129997JBB,8pugqmnlxh,"Mediated JOLs",1,199,2023-11-06T17:41:56+00:00,1.9230840206146,4,versionB_stim.csv,JOLVersion.csv,JOL,JOL2,COTTON,HARD,Study1,M,75,87,Test,User,-,,Recall,Recall2,1730,hard,100,992,1599,1,1,,,1
w10129997JBB,8pugqmnlxh,"Mediated JOLs",1,200,2023-11-06T17:42:00+00:00,4.2504789829254,4,versionB_stim.csv,JOLVersion.csv,JOL,JOL2,SHELL,SHAKE,Study1,U,98,66,Test,User,-,,Recall,Recall2,4028,soft,22.222222222222,3474,3868,0,0,,,1
w10129997JBB,8pugqmnlxh,"Mediated JOLs",1,201,2023-11-06T17:42:03+00:00,2.7351760864258,4,versionB_stim.csv,JOLVersion.csv,JOL,JOL2,LISTEN,FICTION,Study1,U,99,100,Test,User,-,,Recall,Recall2,2541,voice,33.333333333333,2013,2387,0,0,,,1
w10129997JBB,8pugqmnlxh,"Mediated JOLs",1,202,2023-11-06T17:42:07+00:00,3.7696378231049,4,versionB_stim.csv,JOLVersion.csv,JOL,JOL2,STRETCH,CLOTH,Study1,U,92,99,Test,User,-,,Recall,Recall2,3594,good,22.222222222222,1834,3467,0,0,,,1
w10129997JBB,8pugqmnlxh,"Mediated JOLs",1,203,2023-11-06T17:42:10+00:00,2.9876651763916,4,versionB_stim.csv,JOLVersion.csv,JOL,JOL2,MAZE,PHONE,Study1,U,97,89,Test,User,-,,Recall,Recall2,2792,run,25,2339,2588,0,0,,,1
w10129997JBB,8pugqmnlxh,"Mediated JOLs",1,204,2023-11-06T17:42:12+00:00,2.7033529281616,4,versionB_stim.csv,JOLVersion.csv,JOL,JOL2,WHEEL,HORSE,Study1,M,69,82,Test,User,-,,Recall,Recall2,2520,horse,100,1368,2369,1,1,,,1
w10129997JBB,8pugqmnlxh,"Mediated JOLs",1,205,2023-11-06T17:42:16+00:00,3.2724189758301,4,versionB_stim.csv,JOLVersion.csv,JOL,JOL2,HYGIENE,CLEAN,Study1,F,83,65,Test,User,-,,Recall,Recall2,3079,teeth,20,2347,2870,0,0,,,1
w10129997JBB,8pugqmnlxh,"Mediated JOLs",1,206,2023-11-06T17:42:19+00:00,2.9586930274963,4,versionB_stim.csv,JOLVersion.csv,JOL,JOL2,SYRUP,TREE,Study1,M,66,62,Test,User,-,,Recall,Recall2,2772,pancakes,16.666666666667,1188,2695,0,0,,,1
w10129997JBB,8pugqmnlxh,"Mediated JOLs",1,207,2023-11-06T17:42:22+00:00,3.4376518726349,4,versionB_stim.csv,JOLVersion.csv,JOL,JOL2,PIE,BIRTHDAY,Study1,M,64,98,Test,User,-,,Recall,Recall2,3248,birthday,100,1962,3072,1,1,,,1
w10129997JBB,8pugqmnlxh,"Mediated JOLs",1,208,2023-11-06T17:42:25+00:00,2.8475031852722,4,versionB_stim.csv,JOLVersion.csv,JOL,JOL2,SOON,BELT,Study1,U,101,85,Test,User,-,,Recall,Recall2,2645,"next time",30.769230769231,1334,2510,0,0,,,1
w10129997JBB,8pugqmnlxh,"Mediated JOLs",1,209,2023-11-06T17:42:29+00:00,4.1873049736023,4,versionB_stim.csv,JOLVersion.csv,JOL,JOL2,FUZZY,BANG,Study1,U,105,64,Test,User,-,,Recall,Recall2,4008,time,0,1414,3874,0,0,,,1
w10129997JBB,8pugqmnlxh,"Mediated JOLs",1,210,2023-11-06T17:42:32+00:00,2.7631869316101,4,versionB_stim.csv,JOLVersion.csv,JOL,JOL2,MULE,DONKEY,Study1,F,79,92,Test,User,-,,Recall,Recall2,2569,horse,36.363636363636,1992,2467,0,0,,,1
w10129997JBB,8pugqmnlxh,"Mediated JOLs",1,211,2023-11-06T17:42:35+00:00,3.3469650745392,4,versionB_stim.csv,JOLVersion.csv,JOL,JOL2,TEMPERATURE,MORNING,Study1,U,103,77,Test,User,-,,Recall,Recall2,3147,hot,20,1485,2934,0,0,,,1
w10129997JBB,8pugqmnlxh,"Mediated JOLs",1,212,2023-11-06T17:42:38+00:00,3.1850290298462,4,versionB_stim.csv,JOLVersion.csv,JOL,JOL2,STRIPES,LION,Study1,M,61,101,Test,User,-,,Recall,Recall2,2988,lion,100,2048,2367,1,1,,,1
w10129997JBB,8pugqmnlxh,"Mediated JOLs",1,213,2023-11-06T17:42:40+00:00,1.7563829421997,4,versionB_stim.csv,JOLVersion.csv,JOL,JOL2,BOTTLE,CRY,Study1,M,71,69,Test,User,-,,Recall,Recall2,1563,cap,33.333333333333,1143,1325,0,0,,,1
w10129997JBB,8pugqmnlxh,"Mediated JOLs",1,214,2023-11-06T17:42:42+00:00,2.3140108585358,4,versionB_stim.csv,JOLVersion.csv,JOL,JOL2,GIVE,STEAK,Study1,U,93,68,Test,User,-,,Recall,Recall2,2115,get,25,1722,1988,0,0,,,1
w10129997JBB,8pugqmnlxh,"Mediated JOLs",1,215,2023-11-06T17:42:43+00:00,0.99227118492126,4,versionB_stim.csv,JOLVersion.csv,JOL,JOL2,,,,,,0,Instruct,User,-,"You have completed this section. Please press Enter.",,Instruct7,818,,,-1,-1,,,,,1
w10129997JBB,8pugqmnlxh,"Mediated JOLs",1,216,2023-11-06T17:42:44+00:00,0.73852181434631,4,versionB_stim.csv,JOLVersion.csv,JOL,JOL2,,,,,,0,Instruct,User,-,"The following screen will ask you a few questions abour your experience today. You must complete these questions to receive credit.",,Instruct8,551,,,-1,-1,,,,,1
