Username,ID,ExperimentName,Session,Trial,Date,TimeDif,"Condition Number","Stimuli File","Order File","Condition Description","Condition Notes",Stimuli*Cue,Stimuli*Answer,Stimuli*Shuffle,"Stimuli*Stimuli Notes",Stimuli*Value,Procedure*Item,"Procedure*Trial Type","Procedure*Max Time","Procedure*Min Time",Procedure*Text,"Procedure*Procedure Notes",Procedure*Shuffle,Response*RT,Response*Response,Response*Accuracy,Response*RTfirst,Response*RTlast,Response*strictAcc,Response*lenientAcc,Response*focus,Response*JOL,Response*Focus
w10117470_kjt,rv1qtdidv7,"Mediated JOLs",1,1,2023-11-07T22:17:41+00:00,5.6609869003296,4,versionB_stim.csv,JOLVersion.csv,JOL,JOL2,,,,,,0,Instruct,-,5,"In this section, you will be presented with a series of word pairs. Please study each word pair! Your memory will be tested!",Initial_Instruct,Instruct1,5590,,,-1,-1,,,,,1
w10117470_kjt,rv1qtdidv7,"Mediated JOLs",1,2,2023-11-07T22:17:59+00:00,18.867939949036,4,versionB_stim.csv,JOLVersion.csv,JOL,JOL2,,,,,,0,Instruct,-,10,"As you study, you will be asked to rate your ability to remember the second item in the pair if you were only shown the first at test. You will make these ratings using a 0 to 100 Scale.",,Instruct13,18753,,,-1,-1,,,,,1
w10117470_kjt,rv1qtdidv7,"Mediated JOLs",1,3,2023-11-07T22:18:11+00:00,11.35470199585,4,versionB_stim.csv,JOLVersion.csv,JOL,JOL2,,,,,,0,Instruct,-,10,"For example, if you are given the pair CAT - DOG, a rating of 0 indicates that you would not remember DOG at test, while a rating of 100 indicates full certainty that you would remember the word DOG at test.",,Instruct14,11248,,,-1,-1,,,,,1
w10117470_kjt,rv1qtdidv7,"Mediated JOLs",1,4,2023-11-07T22:18:22+00:00,11.075091123581,4,versionB_stim.csv,JOLVersion.csv,JOL,JOL2,,,,,,0,Instruct,-,10,"When making your ratings, it is criticial that you use the full range of the scale. You will be disqualified for only giving ratings of 0 or 100! After making your rating, press Enter to advance to the next pair.",,Instruct15,10949,,,-1,-1,,,,,1
w10117470_kjt,rv1qtdidv7,"Mediated JOLs",1,5,2023-11-07T22:18:24+00:00,1.7026369571686,4,versionB_stim.csv,JOLVersion.csv,JOL,JOL2,,,,,,0,Instruct,User,-,"You will now begin the study. Press Enter when you are ready to begin.",,Instruct16,1598,,,-1,-1,,,,,1
w10117470_kjt,rv1qtdidv7,"Mediated JOLs",1,6,2023-11-07T22:18:33+00:00,9.8920199871063,4,versionB_stim.csv,JOLVersion.csv,JOL,JOL2,MONTH,YEAR,BUFFER3,Buffer,2,3,JOL,User,-,"How likely are you to correctly recall the second item in the pair?|Type your response on a scale from 0-100 and then press Enter.",Study/JOL,BUFFER,9783,,,8333,8492,,,,85,0.408
w10117470_kjt,rv1qtdidv7,"Mediated JOLs",1,7,2023-11-07T22:18:41+00:00,7.2748279571533,4,versionB_stim.csv,JOLVersion.csv,JOL,JOL2,SPRING,MARCH,BUFFER3,Buffer,4,4,JOL,User,-,"How likely are you to correctly recall the second item in the pair?|Type your response on a scale from 0-100 and then press Enter.",Study/JOL,BUFFER,7169,,,6148,6473,,,,90,0.333
w10117470_kjt,rv1qtdidv7,"Mediated JOLs",1,8,2023-11-07T22:18:47+00:00,6.7306809425354,4,versionB_stim.csv,JOLVersion.csv,JOL,JOL2,DAYS,WEAKS,BUFFER3,Buffer,1,5,JOL,User,-,"How likely are you to correctly recall the second item in the pair?|Type your response on a scale from 0-100 and then press Enter.",Study/JOL,BUFFER,6629,,,5425,5914,,,,50,0.441
w10117470_kjt,rv1qtdidv7,"Mediated JOLs",1,9,2023-11-07T22:18:56+00:00,8.4673030376434,4,versionB_stim.csv,JOLVersion.csv,JOL,JOL2,TOOL,SHED,BUFFER3,Buffer,3,2,JOL,User,-,"How likely are you to correctly recall the second item in the pair?|Type your response on a scale from 0-100 and then press Enter.",Study/JOL,BUFFER,8365,,,7331,7768,,,,95,0.476
w10117470_kjt,rv1qtdidv7,"Mediated JOLs",1,10,2023-11-07T22:19:04+00:00,8.428642988205,4,versionB_stim.csv,JOLVersion.csv,JOL,JOL2,OCTOBER,SPOOKY,BUFFER3,Buffer,5,6,JOL,User,-,"How likely are you to correctly recall the second item in the pair?|Type your response on a scale from 0-100 and then press Enter.",Study/JOL,BUFFER,8312,,,7416,7562,,,,99,0.381
w10117470_kjt,rv1qtdidv7,"Mediated JOLs",1,11,2023-11-07T22:19:14+00:00,9.6364300251007,4,versionB_stim.csv,JOLVersion.csv,JOL,JOL2,SNOW,SUMMER,Study2,M,6,23,JOL,User,-,"How likely are you to correctly recall the second item in the pair?|Type your response on a scale from 0-100 and then press Enter.",Study/JOL,"Study Phase",9519,,,8783,8943,,,,85,0.354
w10117470_kjt,rv1qtdidv7,"Mediated JOLs",1,12,2023-11-07T22:19:21+00:00,6.8202171325684,4,versionB_stim.csv,JOLVersion.csv,JOL,JOL2,WASP,BUG,Study2,F,34,21,JOL,User,-,"How likely are you to correctly recall the second item in the pair?|Type your response on a scale from 0-100 and then press Enter.",Study/JOL,"Study Phase",6718,,,5725,6098,,,,90,0.471
w10117470_kjt,rv1qtdidv7,"Mediated JOLs",1,13,2023-11-07T22:19:29+00:00,7.6993010044098,4,versionB_stim.csv,JOLVersion.csv,JOL,JOL2,FEATHER,HEAVY,Study2,M,13,40,JOL,User,-,"How likely are you to correctly recall the second item in the pair?|Type your response on a scale from 0-100 and then press Enter.",Study/JOL,"Study Phase",7583,,,6206,6545,,,,50,0.447
w10117470_kjt,rv1qtdidv7,"Mediated JOLs",1,14,2023-11-07T22:19:37+00:00,8.2774538993835,4,versionB_stim.csv,JOLVersion.csv,JOL,JOL2,HAPPY,CAR,Study2,U,37,15,JOL,User,-,"How likely are you to correctly recall the second item in the pair?|Type your response on a scale from 0-100 and then press Enter.",Study/JOL,"Study Phase",8158,,,6700,7193,,,,30,0.366
w10117470_kjt,rv1qtdidv7,"Mediated JOLs",1,15,2023-11-07T22:19:44+00:00,6.953008890152,4,versionB_stim.csv,JOLVersion.csv,JOL,JOL2,FEUD,FIGHT,Study2,F,31,8,JOL,User,-,"How likely are you to correctly recall the second item in the pair?|Type your response on a scale from 0-100 and then press Enter.",Study/JOL,"Study Phase",6847,,,5656,5904,,,,95,0.514
w10117470_kjt,rv1qtdidv7,"Mediated JOLs",1,16,2023-11-07T22:19:51+00:00,7.5785961151123,4,versionB_stim.csv,JOLVersion.csv,JOL,JOL2,LEASE,TOIL,Study2,U,46,51,JOL,User,-,"How likely are you to correctly recall the second item in the pair?|Type your response on a scale from 0-100 and then press Enter.",Study/JOL,"Study Phase",7471,,,6507,6947,,,,25,0.395
w10117470_kjt,rv1qtdidv7,"Mediated JOLs",1,17,2023-11-07T22:19:59+00:00,7.1912310123444,4,versionB_stim.csv,JOLVersion.csv,JOL,JOL2,CHERRY,RED,Study2,F,25,47,JOL,User,-,"How likely are you to correctly recall the second item in the pair?|Type your response on a scale from 0-100 and then press Enter.",Study/JOL,"Study Phase",7080,,,5980,6277,,,,95,0.417
w10117470_kjt,rv1qtdidv7,"Mediated JOLs",1,18,2023-11-07T22:20:05+00:00,6.4964408874512,4,versionB_stim.csv,JOLVersion.csv,JOL,JOL2,CHILL,COLD,Study2,F,32,49,JOL,User,-,"How likely are you to correctly recall the second item in the pair?|Type your response on a scale from 0-100 and then press Enter.",Study/JOL,"Study Phase",6384,,,4515,4784,,,,95,0.469
w10117470_kjt,rv1qtdidv7,"Mediated JOLs",1,19,2023-11-07T22:20:11+00:00,5.6390709877014,4,versionB_stim.csv,JOLVersion.csv,JOL,JOL2,SICK,HIDE,Study2,U,45,27,JOL,User,-,"How likely are you to correctly recall the second item in the pair?|Type your response on a scale from 0-100 and then press Enter.",Study/JOL,"Study Phase",5533,,,4725,4770,,,,50,0.357
w10117470_kjt,rv1qtdidv7,"Mediated JOLs",1,20,2023-11-07T22:20:17+00:00,6.2344191074371,4,versionB_stim.csv,JOLVersion.csv,JOL,JOL2,HERD,COW,Study2,F,33,16,JOL,User,-,"How likely are you to correctly recall the second item in the pair?|Type your response on a scale from 0-100 and then press Enter.",Study/JOL,"Study Phase",6121,,,5198,5350,,,,99,0.452
w10117470_kjt,rv1qtdidv7,"Mediated JOLs",1,21,2023-11-07T22:20:25+00:00,8.549488067627,4,versionB_stim.csv,JOLVersion.csv,JOL,JOL2,DIETARY,SACK,Study2,U,42,19,JOL,User,-,"How likely are you to correctly recall the second item in the pair?|Type your response on a scale from 0-100 and then press Enter.",Study/JOL,"Study Phase",8436,,,7682,7682,,,,5,0.465
w10117470_kjt,rv1qtdidv7,"Mediated JOLs",1,22,2023-11-07T22:20:35+00:00,9.5542178153992,4,versionB_stim.csv,JOLVersion.csv,JOL,JOL2,SMELL,EYES,Study2,M,10,29,JOL,User,-,"How likely are you to correctly recall the second item in the pair?|Type your response on a scale from 0-100 and then press Enter.",Study/JOL,"Study Phase",9444,,,8505,8854,,,,50,0.333
w10117470_kjt,rv1qtdidv7,"Mediated JOLs",1,23,2023-11-07T22:20:42+00:00,7.3046200275421,4,versionB_stim.csv,JOLVersion.csv,JOL,JOL2,HORNET,STING,Study2,F,30,34,JOL,User,-,"How likely are you to correctly recall the second item in the pair?|Type your response on a scale from 0-100 and then press Enter.",Study/JOL,"Study Phase",7198,,,6263,6562,,,,95,0.389
w10117470_kjt,rv1qtdidv7,"Mediated JOLs",1,24,2023-11-07T22:20:49+00:00,6.4797801971436,4,versionB_stim.csv,JOLVersion.csv,JOL,JOL2,PUSH,CLUTTER,Study2,U,41,45,JOL,User,-,"How likely are you to correctly recall the second item in the pair?|Type your response on a scale from 0-100 and then press Enter.",Study/JOL,"Study Phase",6379,,,5756,5897,,,,55,0.406
w10117470_kjt,rv1qtdidv7,"Mediated JOLs",1,25,2023-11-07T22:20:56+00:00,7.2777760028839,4,versionB_stim.csv,JOLVersion.csv,JOL,JOL2,DRINK,SOAP,Study2,M,12,18,JOL,User,-,"How likely are you to correctly recall the second item in the pair?|Type your response on a scale from 0-100 and then press Enter.",Study/JOL,"Study Phase",7164,,,5554,5619,,,,30,0.528
w10117470_kjt,rv1qtdidv7,"Mediated JOLs",1,26,2023-11-07T22:21:03+00:00,7.4107429981232,4,versionB_stim.csv,JOLVersion.csv,JOL,JOL2,SUGAR,RIDDLE,Study2,U,40,33,JOL,User,-,"How likely are you to correctly recall the second item in the pair?|Type your response on a scale from 0-100 and then press Enter.",Study/JOL,"Study Phase",7301,,,5857,5906,,,,25,0.432
w10117470_kjt,rv1qtdidv7,"Mediated JOLs",1,27,2023-11-07T22:21:13+00:00,9.3570549488068,4,versionB_stim.csv,JOLVersion.csv,JOL,JOL2,KNOB,WINDOW,Study2,M,19,12,JOL,User,-,"How likely are you to correctly recall the second item in the pair?|Type your response on a scale from 0-100 and then press Enter.",Study/JOL,"Study Phase",9233,,,7701,7751,,,,30,0.511
w10117470_kjt,rv1qtdidv7,"Mediated JOLs",1,28,2023-11-07T22:21:17+00:00,3.9509229660034,4,versionB_stim.csv,JOLVersion.csv,JOL,JOL2,ATTIRE,CLOTHES,Study2,F,24,46,JOL,User,-,"How likely are you to correctly recall the second item in the pair?|Type your response on a scale from 0-100 and then press Enter.",Study/JOL,"Study Phase",3846,,,2424,2556,,,,22,1
w10117470_kjt,rv1qtdidv7,"Mediated JOLs",1,29,2023-11-07T22:21:20+00:00,3.4302020072937,4,versionB_stim.csv,JOLVersion.csv,JOL,JOL2,SEED,RAKE,Study2,M,14,25,JOL,User,-,"How likely are you to correctly recall the second item in the pair?|Type your response on a scale from 0-100 and then press Enter.",Study/JOL,"Study Phase",3324,,,1638,1875,,,,50,1
w10117470_kjt,rv1qtdidv7,"Mediated JOLs",1,30,2023-11-07T22:21:24+00:00,3.8942089080811,4,versionB_stim.csv,JOLVersion.csv,JOL,JOL2,ARTERY,BRONZE,Study2,U,48,48,JOL,User,-,"How likely are you to correctly recall the second item in the pair?|Type your response on a scale from 0-100 and then press Enter.",Study/JOL,"Study Phase",3790,,,2380,2571,,,,20,1
w10117470_kjt,rv1qtdidv7,"Mediated JOLs",1,31,2023-11-07T22:21:28+00:00,3.8068830966949,4,versionB_stim.csv,JOLVersion.csv,JOL,JOL2,STOP,SCHOOL,Study2,M,7,41,JOL,User,-,"How likely are you to correctly recall the second item in the pair?|Type your response on a scale from 0-100 and then press Enter.",Study/JOL,"Study Phase",3705,,,2165,2594,,,,85,1
w10117470_kjt,rv1qtdidv7,"Mediated JOLs",1,32,2023-11-07T22:21:31+00:00,3.2528829574585,4,versionB_stim.csv,JOLVersion.csv,JOL,JOL2,DOCUMENT,PAPER,Study2,F,27,36,JOL,User,-,"How likely are you to correctly recall the second item in the pair?|Type your response on a scale from 0-100 and then press Enter.",Study/JOL,"Study Phase",3145,,,1665,1866,,,,95,1
w10117470_kjt,rv1qtdidv7,"Mediated JOLs",1,33,2023-11-07T22:21:36+00:00,4.5167739391327,4,versionB_stim.csv,JOLVersion.csv,JOL,JOL2,COLLAR,PANTS,Study2,M,8,20,JOL,User,-,"How likely are you to correctly recall the second item in the pair?|Type your response on a scale from 0-100 and then press Enter.",Study/JOL,"Study Phase",4415,,,3245,3411,,,,15,1
w10117470_kjt,rv1qtdidv7,"Mediated JOLs",1,34,2023-11-07T22:21:39+00:00,3.6406090259552,4,versionB_stim.csv,JOLVersion.csv,JOL,JOL2,KING,VASE,Study2,U,36,32,JOL,User,-,"How likely are you to correctly recall the second item in the pair?|Type your response on a scale from 0-100 and then press Enter.",Study/JOL,"Study Phase",3530,,,2165,2425,,,,10,1
w10117470_kjt,rv1qtdidv7,"Mediated JOLs",1,35,2023-11-07T22:21:43+00:00,3.2736859321594,4,versionB_stim.csv,JOLVersion.csv,JOL,JOL2,BRIDGE,WATER,Study2,F,35,11,JOL,User,-,"How likely are you to correctly recall the second item in the pair?|Type your response on a scale from 0-100 and then press Enter.",Study/JOL,"Study Phase",3170,,,1846,2069,,,,95,1
w10117470_kjt,rv1qtdidv7,"Mediated JOLs",1,36,2023-11-07T22:21:46+00:00,3.0913281440735,4,versionB_stim.csv,JOLVersion.csv,JOL,JOL2,LEAGUE,BASEBALL,Study2,F,29,50,JOL,User,-,"How likely are you to correctly recall the second item in the pair?|Type your response on a scale from 0-100 and then press Enter.",Study/JOL,"Study Phase",2985,,,1759,1944,,,,95,1
w10117470_kjt,rv1qtdidv7,"Mediated JOLs",1,37,2023-11-07T22:21:48+00:00,2.7927730083466,4,versionB_stim.csv,JOLVersion.csv,JOL,JOL2,INCENSE,SMELL,Study2,F,28,43,JOL,User,-,"How likely are you to correctly recall the second item in the pair?|Type your response on a scale from 0-100 and then press Enter.",Study/JOL,"Study Phase",2685,,,1420,1614,,,,95,1
w10117470_kjt,rv1qtdidv7,"Mediated JOLs",1,38,2023-11-07T22:21:52+00:00,3.6163768768311,4,versionB_stim.csv,JOLVersion.csv,JOL,JOL2,MUSCLE,RAZOR,Study2,M,20,13,JOL,User,-,"How likely are you to correctly recall the second item in the pair?|Type your response on a scale from 0-100 and then press Enter.",Study/JOL,"Study Phase",3508,,,2190,2427,,,,10,1
w10117470_kjt,rv1qtdidv7,"Mediated JOLs",1,39,2023-11-07T22:21:56+00:00,3.5900220870972,4,versionB_stim.csv,JOLVersion.csv,JOL,JOL2,CAVE,TRAP,Study2,M,15,14,JOL,User,-,"How likely are you to correctly recall the second item in the pair?|Type your response on a scale from 0-100 and then press Enter.",Study/JOL,"Study Phase",3467,,,1988,2176,,,,05,1
w10117470_kjt,rv1qtdidv7,"Mediated JOLs",1,40,2023-11-07T22:21:59+00:00,3.7494380474091,4,versionB_stim.csv,JOLVersion.csv,JOL,JOL2,CHISEL,HAMMER,Study2,F,23,17,JOL,User,-,"How likely are you to correctly recall the second item in the pair?|Type your response on a scale from 0-100 and then press Enter.",Study/JOL,"Study Phase",3627,,,2021,2091,,,,95,1
w10117470_kjt,rv1qtdidv7,"Mediated JOLs",1,41,2023-11-07T22:22:03+00:00,3.9750788211823,4,versionB_stim.csv,JOLVersion.csv,JOL,JOL2,BENCH,HORN,Study2,U,43,38,JOL,User,-,"How likely are you to correctly recall the second item in the pair?|Type your response on a scale from 0-100 and then press Enter.",Study/JOL,"Study Phase",3872,,,2252,2429,,,,20,1
w10117470_kjt,rv1qtdidv7,"Mediated JOLs",1,42,2023-11-07T22:22:07+00:00,3.4564001560211,4,versionB_stim.csv,JOLVersion.csv,JOL,JOL2,THIGH,GRILL,Study2,M,17,30,JOL,User,-,"How likely are you to correctly recall the second item in the pair?|Type your response on a scale from 0-100 and then press Enter.",Study/JOL,"Study Phase",3344,,,1977,2148,,,,02,1
w10117470_kjt,rv1qtdidv7,"Mediated JOLs",1,43,2023-11-07T22:22:10+00:00,3.3035609722137,4,versionB_stim.csv,JOLVersion.csv,JOL,JOL2,CHOP,CUT,Study2,F,22,39,JOL,User,-,"How likely are you to correctly recall the second item in the pair?|Type your response on a scale from 0-100 and then press Enter.",Study/JOL,"Study Phase",3193,,,1747,1937,,,,95,1
w10117470_kjt,rv1qtdidv7,"Mediated JOLs",1,44,2023-11-07T22:22:13+00:00,2.9441380500793,4,versionB_stim.csv,JOLVersion.csv,JOL,JOL2,CACTUS,PLANT,Study2,F,21,28,JOL,User,-,"How likely are you to correctly recall the second item in the pair?|Type your response on a scale from 0-100 and then press Enter.",Study/JOL,"Study Phase",2827,,,1492,1675,,,,95,1
w10117470_kjt,rv1qtdidv7,"Mediated JOLs",1,45,2023-11-07T22:22:17+00:00,3.4799230098724,4,versionB_stim.csv,JOLVersion.csv,JOL,JOL2,ISLAND,REALITY,Study2,M,9,24,JOL,User,-,"How likely are you to correctly recall the second item in the pair?|Type your response on a scale from 0-100 and then press Enter.",Study/JOL,"Study Phase",3364,,,1825,2028,,,,50,1
w10117470_kjt,rv1qtdidv7,"Mediated JOLs",1,46,2023-11-07T22:22:20+00:00,3.1086678504944,4,versionB_stim.csv,JOLVersion.csv,JOL,JOL2,MIRROR,CHILDREN,Study2,U,49,42,JOL,User,-,"How likely are you to correctly recall the second item in the pair?|Type your response on a scale from 0-100 and then press Enter.",Study/JOL,"Study Phase",2999,,,1618,1781,,,,20,1
w10117470_kjt,rv1qtdidv7,"Mediated JOLs",1,47,2023-11-07T22:22:23+00:00,2.8237981796265,4,versionB_stim.csv,JOLVersion.csv,JOL,JOL2,ART,WOLF,Study2,U,38,37,JOL,User,-,"How likely are you to correctly recall the second item in the pair?|Type your response on a scale from 0-100 and then press Enter.",Study/JOL,"Study Phase",2711,,,1404,1584,,,,10,1
w10117470_kjt,rv1qtdidv7,"Mediated JOLs",1,48,2023-11-07T22:22:25+00:00,2.8568348884583,4,versionB_stim.csv,JOLVersion.csv,JOL,JOL2,PEAK,VALLEY,Study2,M,18,31,JOL,User,-,"How likely are you to correctly recall the second item in the pair?|Type your response on a scale from 0-100 and then press Enter.",Study/JOL,"Study Phase",2748,,,1278,1579,,,,95,1
w10117470_kjt,rv1qtdidv7,"Mediated JOLs",1,49,2023-11-07T22:22:28+00:00,3.0943999290466,4,versionB_stim.csv,JOLVersion.csv,JOL,JOL2,STRONG,ACCIDENT,Study2,U,39,9,JOL,User,-,"How likely are you to correctly recall the second item in the pair?|Type your response on a scale from 0-100 and then press Enter.",Study/JOL,"Study Phase",2990,,,1747,1924,,,,20,1
w10117470_kjt,rv1qtdidv7,"Mediated JOLs",1,50,2023-11-07T22:22:31+00:00,2.9812381267548,4,versionB_stim.csv,JOLVersion.csv,JOL,JOL2,BOTH,OUNCE,Study2,U,47,26,JOL,User,-,"How likely are you to correctly recall the second item in the pair?|Type your response on a scale from 0-100 and then press Enter.",Study/JOL,"Study Phase",2874,,,1470,1880,,,,05,1
w10117470_kjt,rv1qtdidv7,"Mediated JOLs",1,51,2023-11-07T22:22:34+00:00,2.3588418960571,4,versionB_stim.csv,JOLVersion.csv,JOL,JOL2,CASH,LEG,Study2,U,50,35,JOL,User,-,"How likely are you to correctly recall the second item in the pair?|Type your response on a scale from 0-100 and then press Enter.",Study/JOL,"Study Phase",2256,,,1190,1391,,,,05,1
w10117470_kjt,rv1qtdidv7,"Mediated JOLs",1,52,2023-11-07T22:22:36+00:00,2.510360956192,4,versionB_stim.csv,JOLVersion.csv,JOL,JOL2,BASKET,OVEN,Study2,M,16,7,JOL,User,-,"How likely are you to correctly recall the second item in the pair?|Type your response on a scale from 0-100 and then press Enter.",Study/JOL,"Study Phase",2401,,,1388,1568,,,,20,1
w10117470_kjt,rv1qtdidv7,"Mediated JOLs",1,53,2023-11-07T22:22:39+00:00,2.6904671192169,4,versionB_stim.csv,JOLVersion.csv,JOL,JOL2,BLAZE,FIRE,Study2,F,26,22,JOL,User,-,"How likely are you to correctly recall the second item in the pair?|Type your response on a scale from 0-100 and then press Enter.",Study/JOL,"Study Phase",2584,,,1517,1691,,,,95,1
w10117470_kjt,rv1qtdidv7,"Mediated JOLs",1,54,2023-11-07T22:22:41+00:00,2.4050149917603,4,versionB_stim.csv,JOLVersion.csv,JOL,JOL2,DEATH,BUSINESS,Study2,U,44,10,JOL,User,-,"How likely are you to correctly recall the second item in the pair?|Type your response on a scale from 0-100 and then press Enter.",Study/JOL,"Study Phase",2295,,,1225,1390,,,,20,1
w10117470_kjt,rv1qtdidv7,"Mediated JOLs",1,55,2023-11-07T22:22:44+00:00,2.3792879581451,4,versionB_stim.csv,JOLVersion.csv,JOL,JOL2,LAWYER,NURSE,Study2,M,11,44,JOL,User,-,"How likely are you to correctly recall the second item in the pair?|Type your response on a scale from 0-100 and then press Enter.",Study/JOL,"Study Phase",2269,,,1190,1369,,,,20,1
w10117470_kjt,rv1qtdidv7,"Mediated JOLs",1,56,2023-11-07T22:22:47+00:00,3.0633630752563,4,versionB_stim.csv,JOLVersion.csv,JOL,JOL2,SHERRIF,POLICE,BUFFER2,Buffer,107,111,JOL,User,-,"How likely are you to correctly recall the second item in the pair?|Type your response on a scale from 0-100 and then press Enter.",Study/JOL,BUFFER2,2956,,,1088,1888,,,,99,1
w10117470_kjt,rv1qtdidv7,"Mediated JOLs",1,57,2023-11-07T22:22:49+00:00,2.2901129722595,4,versionB_stim.csv,JOLVersion.csv,JOL,JOL2,MALT,CHOCOLATE,BUFFER2,Buffer,108,109,JOL,User,-,"How likely are you to correctly recall the second item in the pair?|Type your response on a scale from 0-100 and then press Enter.",Study/JOL,BUFFER2,2189,,,1265,1409,,,,99,1
w10117470_kjt,rv1qtdidv7,"Mediated JOLs",1,58,2023-11-07T22:22:52+00:00,2.4729080200195,4,versionB_stim.csv,JOLVersion.csv,JOL,JOL2,NOODLE,STRING,BUFFER4,Buffer,52,53,JOL,User,-,"How likely are you to correctly recall the second item in the pair?|Type your response on a scale from 0-100 and then press Enter.",Study/JOL,BUFFER2,2364,,,1243,1430,,,,95,1
w10117470_kjt,rv1qtdidv7,"Mediated JOLs",1,59,2023-11-07T22:22:54+00:00,2.6492040157318,4,versionB_stim.csv,JOLVersion.csv,JOL,JOL2,SPACE,JAM,BUFFER1,Buffer,60,57,JOL,User,-,"How likely are you to correctly recall the second item in the pair?|Type your response on a scale from 0-100 and then press Enter.",Study/JOL,BUFFER2,2544,,,1073,1496,,,,99,1
w10117470_kjt,rv1qtdidv7,"Mediated JOLs",1,60,2023-11-07T22:22:57+00:00,2.939395904541,4,versionB_stim.csv,JOLVersion.csv,JOL,JOL2,CARROT,POTATO,BUFFER4,Buffer,51,55,JOL,User,-,"How likely are you to correctly recall the second item in the pair?|Type your response on a scale from 0-100 and then press Enter.",Study/JOL,BUFFER2,2822,,,1516,1775,,,,10,1
w10117470_kjt,rv1qtdidv7,"Mediated JOLs",1,61,2023-11-07T22:22:59+00:00,1.8472189903259,4,versionB_stim.csv,JOLVersion.csv,JOL,JOL2,,,,,,0,Instruct,User,-,"You have completed this section. Please press Enter.",Filler_Instruction,Instruct2,1734,,,-1,-1,,,,,1
w10117470_kjt,rv1qtdidv7,"Mediated JOLs",1,62,2023-11-07T22:24:59+00:00,120.31796002388,4,versionB_stim.csv,JOLVersion.csv,JOL,JOL2,,,,,,0,FreeRecall,120,120,"Please list the 50 US states in alphabetical order. The task will automatically advance to the next screen after two minutes.",,Filler1,120001,"alabama alaska arizona arkansas california colorado connecticut delaware florida georgia hawaii idaho new york",0,4177,71490,0,0,,,0.868
w10117470_kjt,rv1qtdidv7,"Mediated JOLs",1,63,2023-11-07T22:25:16+00:00,17.036143064499,4,versionB_stim.csv,JOLVersion.csv,JOL,JOL2,,,,,,0,Instruct,-,10,"You will now be presented with the first word from each of the previously studied item pairs. Please type the missing word. If you do not know the word, you may guess or press Enter to skip forward to the next pair.",,Instruct3,16911,,,-1,-1,,,,,1
w10117470_kjt,rv1qtdidv7,"Mediated JOLs",1,64,2023-11-07T22:25:20+00:00,3.9178929328918,4,versionB_stim.csv,JOLVersion.csv,JOL,JOL2,COLLAR,PANTS,Study2,M,8,20,Test,User,-,,Recall,Recall1,3793,pants,100,1777,2206,1,1,,,1
w10117470_kjt,rv1qtdidv7,"Mediated JOLs",1,65,2023-11-07T22:25:25+00:00,4.3529860973358,4,versionB_stim.csv,JOLVersion.csv,JOL,JOL2,CHILL,COLD,Study2,F,32,49,Test,User,-,,Recall,Recall1,4237,COLD,100,2079,2810,1,1,,,1
w10117470_kjt,rv1qtdidv7,"Mediated JOLs",1,66,2023-11-07T22:25:27+00:00,2.7183248996735,4,versionB_stim.csv,JOLVersion.csv,JOL,JOL2,SEED,RAKE,Study2,M,14,25,Test,User,-,,Recall,Recall1,2606,RAKE,100,1015,1865,1,1,,,1
w10117470_kjt,rv1qtdidv7,"Mediated JOLs",1,67,2023-11-07T22:25:31+00:00,3.8859460353851,4,versionB_stim.csv,JOLVersion.csv,JOL,JOL2,HAPPY,CAR,Study2,U,37,15,Test,User,-,,Recall,Recall1,3774,SAD,33.333333333333,2397,2602,0,0,,,1
w10117470_kjt,rv1qtdidv7,"Mediated JOLs",1,68,2023-11-07T22:25:34+00:00,2.8364009857178,4,versionB_stim.csv,JOLVersion.csv,JOL,JOL2,THIGH,GRILL,Study2,M,17,30,Test,User,-,,Recall,Recall1,2710,,0,-1,-1,0,0,,,1
w10117470_kjt,rv1qtdidv7,"Mediated JOLs",1,69,2023-11-07T22:25:37+00:00,2.3907949924469,4,versionB_stim.csv,JOLVersion.csv,JOL,JOL2,LEAGUE,BASEBALL,Study2,F,29,50,Test,User,-,,Recall,Recall1,2274,BASEBALL,100,1313,2110,1,1,,,1
w10117470_kjt,rv1qtdidv7,"Mediated JOLs",1,70,2023-11-07T22:25:39+00:00,2.5807259082794,4,versionB_stim.csv,JOLVersion.csv,JOL,JOL2,BASKET,OVEN,Study2,M,16,7,Test,User,-,,Recall,Recall1,2469,OVEN,100,1541,2197,1,1,,,1
w10117470_kjt,rv1qtdidv7,"Mediated JOLs",1,71,2023-11-07T22:25:43+00:00,4.1897110939026,4,versionB_stim.csv,JOLVersion.csv,JOL,JOL2,KING,VASE,Study2,U,36,32,Test,User,-,,Recall,Recall1,4075,QUEEN,22.222222222222,2559,3876,0,0,,,1
w10117470_kjt,rv1qtdidv7,"Mediated JOLs",1,72,2023-11-07T22:25:45+00:00,1.8232259750366,4,versionB_stim.csv,JOLVersion.csv,JOL,JOL2,BENCH,HORN,Study2,U,43,38,Test,User,-,,Recall,Recall1,1689,,0,-1,-1,0,0,,,1
w10117470_kjt,rv1qtdidv7,"Mediated JOLs",1,73,2023-11-07T22:25:48+00:00,2.6162960529327,4,versionB_stim.csv,JOLVersion.csv,JOL,JOL2,CAVE,TRAP,Study2,M,15,14,Test,User,-,,Recall,Recall1,2505,,0,-1,-1,0,0,,,1
w10117470_kjt,rv1qtdidv7,"Mediated JOLs",1,74,2023-11-07T22:25:50+00:00,1.7992660999298,4,versionB_stim.csv,JOLVersion.csv,JOL,JOL2,DIETARY,SACK,Study2,U,42,19,Test,User,-,,Recall,Recall1,1685,SACKS,88.888888888889,1147,1527,0,1,,,1
w10117470_kjt,rv1qtdidv7,"Mediated JOLs",1,75,2023-11-07T22:25:52+00:00,1.9862577915192,4,versionB_stim.csv,JOLVersion.csv,JOL,JOL2,DOCUMENT,PAPER,Study2,F,27,36,Test,User,-,,Recall,Recall1,1865,PAPER,100,980,1732,1,1,,,1
w10117470_kjt,rv1qtdidv7,"Mediated JOLs",1,76,2023-11-07T22:25:54+00:00,2.7521550655365,4,versionB_stim.csv,JOLVersion.csv,JOL,JOL2,BRIDGE,WATER,Study2,F,35,11,Test,User,-,,Recall,Recall1,2635,WATER,100,1170,1612,1,1,,,1
w10117470_kjt,rv1qtdidv7,"Mediated JOLs",1,77,2023-11-07T22:25:57+00:00,2.4683430194855,4,versionB_stim.csv,JOLVersion.csv,JOL,JOL2,SNOW,SUMMER,Study2,M,6,23,Test,User,-,,Recall,Recall1,2357,COLD,0,2014,2265,0,0,,,1
w10117470_kjt,rv1qtdidv7,"Mediated JOLs",1,78,2023-11-07T22:26:00+00:00,2.8271369934082,4,versionB_stim.csv,JOLVersion.csv,JOL,JOL2,STRONG,ACCIDENT,Study2,U,39,9,Test,User,-,,Recall,Recall1,2701,,0,-1,-1,0,0,,,1
w10117470_kjt,rv1qtdidv7,"Mediated JOLs",1,79,2023-11-07T22:26:02+00:00,2.0104579925537,4,versionB_stim.csv,JOLVersion.csv,JOL,JOL2,LAWYER,NURSE,Study2,M,11,44,Test,User,-,,Recall,Recall1,1898,NURSE,100,1271,1749,1,1,,,1
w10117470_kjt,rv1qtdidv7,"Mediated JOLs",1,80,2023-11-07T22:26:03+00:00,1.1367330551147,4,versionB_stim.csv,JOLVersion.csv,JOL,JOL2,DRINK,SOAP,Study2,M,12,18,Test,User,-,,Recall,Recall1,1027,,0,-1,-1,0,0,,,1
w10117470_kjt,rv1qtdidv7,"Mediated JOLs",1,81,2023-11-07T22:26:05+00:00,2.4353618621826,4,versionB_stim.csv,JOLVersion.csv,JOL,JOL2,STOP,SCHOOL,Study2,M,7,41,Test,User,-,,Recall,Recall1,2326,SCHOOL,100,1584,2171,1,1,,,1
w10117470_kjt,rv1qtdidv7,"Mediated JOLs",1,82,2023-11-07T22:26:08+00:00,3.1721341609955,4,versionB_stim.csv,JOLVersion.csv,JOL,JOL2,HORNET,STING,Study2,F,30,34,Test,User,-,,Recall,Recall1,3057,STING,100,2587,2893,1,1,,,1
w10117470_kjt,rv1qtdidv7,"Mediated JOLs",1,83,2023-11-07T22:26:11+00:00,2.8062858581543,4,versionB_stim.csv,JOLVersion.csv,JOL,JOL2,PEAK,VALLEY,Study2,M,18,31,Test,User,-,,Recall,Recall1,2695,VALLEY,100,1906,2502,1,1,,,1
w10117470_kjt,rv1qtdidv7,"Mediated JOLs",1,84,2023-11-07T22:26:13+00:00,2.2236480712891,4,versionB_stim.csv,JOLVersion.csv,JOL,JOL2,CACTUS,PLANT,Study2,F,21,28,Test,User,-,,Recall,Recall1,2117,PLANT,100,1407,1911,1,1,,,1
w10117470_kjt,rv1qtdidv7,"Mediated JOLs",1,85,2023-11-07T22:26:15+00:00,1.9966900348663,4,versionB_stim.csv,JOLVersion.csv,JOL,JOL2,MIRROR,CHILDREN,Study2,U,49,42,Test,User,-,,Recall,Recall1,1884,CHILDREN,100,909,1700,1,1,,,1
w10117470_kjt,rv1qtdidv7,"Mediated JOLs",1,86,2023-11-07T22:26:17+00:00,1.6263859272003,4,versionB_stim.csv,JOLVersion.csv,JOL,JOL2,CASH,LEG,Study2,U,50,35,Test,User,-,,Recall,Recall1,1519,MONEY,25,1111,1398,0,0,,,1
w10117470_kjt,rv1qtdidv7,"Mediated JOLs",1,87,2023-11-07T22:26:19+00:00,1.7400000095367,4,versionB_stim.csv,JOLVersion.csv,JOL,JOL2,KNOB,WINDOW,Study2,M,19,12,Test,User,-,,Recall,Recall1,1640,WINDOW,100,1115,1500,1,1,,,1
w10117470_kjt,rv1qtdidv7,"Mediated JOLs",1,88,2023-11-07T22:26:20+00:00,1.2636561393738,4,versionB_stim.csv,JOLVersion.csv,JOL,JOL2,HERD,COW,Study2,F,33,16,Test,User,-,,Recall,Recall1,1154,COW,100,880,1027,1,1,,,1
w10117470_kjt,rv1qtdidv7,"Mediated JOLs",1,89,2023-11-07T22:26:24+00:00,3.7170488834381,4,versionB_stim.csv,JOLVersion.csv,JOL,JOL2,SMELL,EYES,Study2,M,10,29,Test,User,-,,Recall,Recall1,3611,EYES,100,2356,3463,1,1,,,1
w10117470_kjt,rv1qtdidv7,"Mediated JOLs",1,90,2023-11-07T22:26:25+00:00,1.290708065033,4,versionB_stim.csv,JOLVersion.csv,JOL,JOL2,SICK,HIDE,Study2,U,45,27,Test,User,-,,Recall,Recall1,1180,,0,-1,-1,0,0,,,1
w10117470_kjt,rv1qtdidv7,"Mediated JOLs",1,91,2023-11-07T22:26:27+00:00,1.5175869464874,4,versionB_stim.csv,JOLVersion.csv,JOL,JOL2,CHISEL,HAMMER,Study2,F,23,17,Test,User,-,,Recall,Recall1,1394,HAMMER,100,857,1282,1,1,,,1
w10117470_kjt,rv1qtdidv7,"Mediated JOLs",1,92,2023-11-07T22:26:27+00:00,0.99062395095825,4,versionB_stim.csv,JOLVersion.csv,JOL,JOL2,SUGAR,RIDDLE,Study2,U,40,33,Test,User,-,,Recall,Recall1,885,,0,-1,-1,0,0,,,1
w10117470_kjt,rv1qtdidv7,"Mediated JOLs",1,93,2023-11-07T22:26:28+00:00,0.87899112701416,4,versionB_stim.csv,JOLVersion.csv,JOL,JOL2,PUSH,CLUTTER,Study2,U,41,45,Test,User,-,,Recall,Recall1,770,,0,-1,-1,0,0,,,1
w10117470_kjt,rv1qtdidv7,"Mediated JOLs",1,94,2023-11-07T22:26:30+00:00,1.373183965683,4,versionB_stim.csv,JOLVersion.csv,JOL,JOL2,LEASE,TOIL,Study2,U,46,51,Test,User,-,,Recall,Recall1,1265,,0,-1,-1,0,0,,,1
w10117470_kjt,rv1qtdidv7,"Mediated JOLs",1,95,2023-11-07T22:26:32+00:00,2.0748720169067,4,versionB_stim.csv,JOLVersion.csv,JOL,JOL2,ART,WOLF,Study2,U,38,37,Test,User,-,,Recall,Recall1,1968,WOLF,100,923,1857,1,1,,,1
w10117470_kjt,rv1qtdidv7,"Mediated JOLs",1,96,2023-11-07T22:26:33+00:00,1.136766910553,4,versionB_stim.csv,JOLVersion.csv,JOL,JOL2,DEATH,BUSINESS,Study2,U,44,10,Test,User,-,,Recall,Recall1,1033,,0,-1,-1,0,0,,,1
w10117470_kjt,rv1qtdidv7,"Mediated JOLs",1,97,2023-11-07T22:26:35+00:00,1.5813801288605,4,versionB_stim.csv,JOLVersion.csv,JOL,JOL2,BLAZE,FIRE,Study2,F,26,22,Test,User,-,,Recall,Recall1,1474,FIRE,100,1090,1325,1,1,,,1
w10117470_kjt,rv1qtdidv7,"Mediated JOLs",1,98,2023-11-07T22:26:36+00:00,1.4853830337524,4,versionB_stim.csv,JOLVersion.csv,JOL,JOL2,ARTERY,BRONZE,Study2,U,48,48,Test,User,-,,Recall,Recall1,1368,,0,-1,-1,0,0,,,1
w10117470_kjt,rv1qtdidv7,"Mediated JOLs",1,99,2023-11-07T22:26:38+00:00,1.7399079799652,4,versionB_stim.csv,JOLVersion.csv,JOL,JOL2,INCENSE,SMELL,Study2,F,28,43,Test,User,-,,Recall,Recall1,1630,SMELL,100,1110,1495,1,1,,,1
w10117470_kjt,rv1qtdidv7,"Mediated JOLs",1,100,2023-11-07T22:26:40+00:00,2.6756680011749,4,versionB_stim.csv,JOLVersion.csv,JOL,JOL2,WASP,BUG,Study2,F,34,21,Test,User,-,,Recall,Recall1,2556,STING,25,2007,2403,0,0,,,1
w10117470_kjt,rv1qtdidv7,"Mediated JOLs",1,101,2023-11-07T22:26:42+00:00,1.9356977939606,4,versionB_stim.csv,JOLVersion.csv,JOL,JOL2,FEATHER,HEAVY,Study2,M,13,40,Test,User,-,,Recall,Recall1,1828,HEAVY,100,1082,1629,1,1,,,1
w10117470_kjt,rv1qtdidv7,"Mediated JOLs",1,102,2023-11-07T22:26:44+00:00,1.381087064743,4,versionB_stim.csv,JOLVersion.csv,JOL,JOL2,CHERRY,RED,Study2,F,25,47,Test,User,-,,Recall,Recall1,1267,RED,100,886,1123,1,1,,,1
w10117470_kjt,rv1qtdidv7,"Mediated JOLs",1,103,2023-11-07T22:26:46+00:00,2.4458661079407,4,versionB_stim.csv,JOLVersion.csv,JOL,JOL2,ISLAND,REALITY,Study2,M,9,24,Test,User,-,,Recall,Recall1,2323,REALITY,100,1364,2191,1,1,,,1
w10117470_kjt,rv1qtdidv7,"Mediated JOLs",1,104,2023-11-07T22:26:47+00:00,1.0451648235321,4,versionB_stim.csv,JOLVersion.csv,JOL,JOL2,BOTH,OUNCE,Study2,U,47,26,Test,User,-,,Recall,Recall1,932,,0,-1,-1,0,0,,,1
w10117470_kjt,rv1qtdidv7,"Mediated JOLs",1,105,2023-11-07T22:26:49+00:00,2.0848171710968,4,versionB_stim.csv,JOLVersion.csv,JOL,JOL2,MUSCLE,RAZOR,Study2,M,20,13,Test,User,-,,Recall,Recall1,1970,RAZOR,100,1317,1843,1,1,,,1
w10117470_kjt,rv1qtdidv7,"Mediated JOLs",1,106,2023-11-07T22:26:51+00:00,1.59880900383,4,versionB_stim.csv,JOLVersion.csv,JOL,JOL2,FEUD,FIGHT,Study2,F,31,8,Test,User,-,,Recall,Recall1,1480,FIGHT,100,1022,1349,1,1,,,1
w10117470_kjt,rv1qtdidv7,"Mediated JOLs",1,107,2023-11-07T22:26:52+00:00,0.88405799865723,4,versionB_stim.csv,JOLVersion.csv,JOL,JOL2,ATTIRE,CLOTHES,Study2,F,24,46,Test,User,-,,Recall,Recall1,782,,0,-1,-1,0,0,,,1
w10117470_kjt,rv1qtdidv7,"Mediated JOLs",1,108,2023-11-07T22:26:55+00:00,2.9296369552612,4,versionB_stim.csv,JOLVersion.csv,JOL,JOL2,CHOP,CUT,Study2,F,22,39,Test,User,-,,Recall,Recall1,2818,CUT,100,1899,2550,1,1,,,1
w10117470_kjt,rv1qtdidv7,"Mediated JOLs",1,109,2023-11-07T22:27:06+00:00,11.039098978043,4,versionB_stim.csv,JOLVersion.csv,JOL,JOL2,,,,,,0,Instruct,-,10,"You will now be presented with a new set of word pairs. Please study each pair. Remember that your memory will be tested! When finished, press Enter to move to the next pair.",Initial_Instruct,Instruct4,10791,,,-1,-1,,,,,1
w10117470_kjt,rv1qtdidv7,"Mediated JOLs",1,110,2023-11-07T22:27:17+00:00,10.92067193985,4,versionB_stim.csv,JOLVersion.csv,JOL,JOL2,,,,,,0,Instruct,,10,"You will again be asked to rate your ability to remember these items using a 0 to 100 scale. Remember to use the full range of the scale!",,Instruct10,10803,,,-1,-1,,,,,1
w10117470_kjt,rv1qtdidv7,"Mediated JOLs",1,111,2023-11-07T22:27:18+00:00,1.470822095871,4,versionB_stim.csv,JOLVersion.csv,JOL,JOL2,,,,,,0,Instruct,User,-,"Press Enter when you are readty to begin",,Instruct11,1359,,,-1,-1,,,,,1
w10117470_kjt,rv1qtdidv7,"Mediated JOLs",1,112,2023-11-07T22:27:21+00:00,2.4502658843994,4,versionB_stim.csv,JOLVersion.csv,JOL,JOL2,MOON,SPACE,BUFFER2,Buffer,109,107,JOL,User,-,"How likely are you to correctly recall the second item in the pair?|Type your response on a scale from 0-100 and then press Enter.",Study/JOL,BUFFER2,2334,,,2106,2168,,,,20,1
w10117470_kjt,rv1qtdidv7,"Mediated JOLs",1,113,2023-11-07T22:27:21+00:00,0.79276013374329,4,versionB_stim.csv,JOLVersion.csv,JOL,JOL2,ICE,FROZEN,BUFFER4,Buffer,54,56,JOL,User,-,"How likely are you to correctly recall the second item in the pair?|Type your response on a scale from 0-100 and then press Enter.",Study/JOL,BUFFER2,675,,,338,515,,,,25,1
w10117470_kjt,rv1qtdidv7,"Mediated JOLs",1,114,2023-11-07T22:27:22+00:00,0.73476791381836,4,versionB_stim.csv,JOLVersion.csv,JOL,JOL2,SCARE,FRIGHT,BUFFER1,Buffer,59,59,JOL,User,-,"How likely are you to correctly recall the second item in the pair?|Type your response on a scale from 0-100 and then press Enter.",Study/JOL,BUFFER2,623,,,251,442,,,,58,1
w10117470_kjt,rv1qtdidv7,"Mediated JOLs",1,115,2023-11-07T22:27:23+00:00,0.99227809906006,4,versionB_stim.csv,JOLVersion.csv,JOL,JOL2,CAMP,ADVENTURE,BUFFER4,Buffer,55,52,JOL,User,-,"How likely are you to correctly recall the second item in the pair?|Type your response on a scale from 0-100 and then press Enter.",Study/JOL,BUFFER2,884,,,321,660,,,,86,1
w10117470_kjt,rv1qtdidv7,"Mediated JOLs",1,116,2023-11-07T22:27:24+00:00,0.78590798377991,4,versionB_stim.csv,JOLVersion.csv,JOL,JOL2,PITCHER,CATCHER,BUFFER1,Buffer,57,61,JOL,User,-,"How likely are you to correctly recall the second item in the pair?|Type your response on a scale from 0-100 and then press Enter.",Study/JOL,BUFFER2,675,,,274,471,,,,65,1
w10117470_kjt,rv1qtdidv7,"Mediated JOLs",1,117,2023-11-07T22:27:25+00:00,0.66423392295837,4,versionB_stim.csv,JOLVersion.csv,JOL,JOL2,BOUNCE,BAT,Study1,M,67,68,JOL,User,-,"How likely are you to correctly recall the second item in the pair?|Type your response on a scale from 0-100 and then press Enter.",Study/JOL,"Study Phase2",560,,,201,407,,,,45,1
w10117470_kjt,rv1qtdidv7,"Mediated JOLs",1,118,2023-11-07T22:27:25+00:00,0.72561192512512,4,versionB_stim.csv,JOLVersion.csv,JOL,JOL2,BOX,BEACH,Study1,M,62,83,JOL,User,-,"How likely are you to correctly recall the second item in the pair?|Type your response on a scale from 0-100 and then press Enter.",Study/JOL,"Study Phase2",622,,,183,430,,,,85,1
w10117470_kjt,rv1qtdidv7,"Mediated JOLs",1,119,2023-11-07T22:27:26+00:00,0.70564413070679,4,versionB_stim.csv,JOLVersion.csv,JOL,JOL2,HYGIENE,CLEAN,Study1,F,83,77,JOL,User,-,"How likely are you to correctly recall the second item in the pair?|Type your response on a scale from 0-100 and then press Enter.",Study/JOL,"Study Phase2",601,,,272,469,,,,85,1
w10117470_kjt,rv1qtdidv7,"Mediated JOLs",1,120,2023-11-07T22:27:27+00:00,0.71893191337585,4,versionB_stim.csv,JOLVersion.csv,JOL,JOL2,FINGER,WEDDING,Study1,M,72,70,JOL,User,-,"How likely are you to correctly recall the second item in the pair?|Type your response on a scale from 0-100 and then press Enter.",Study/JOL,"Study Phase2",616,,,254,478,,,,65,1
w10117470_kjt,rv1qtdidv7,"Mediated JOLs",1,121,2023-11-07T22:27:27+00:00,0.67902612686157,4,versionB_stim.csv,JOLVersion.csv,JOL,JOL2,SYRUP,TREE,Study1,M,66,64,JOL,User,-,"How likely are you to correctly recall the second item in the pair?|Type your response on a scale from 0-100 and then press Enter.",Study/JOL,"Study Phase2",579,,,147,393,,,,25,1
w10117470_kjt,rv1qtdidv7,"Mediated JOLs",1,122,2023-11-07T22:27:28+00:00,0.75370597839355,4,versionB_stim.csv,JOLVersion.csv,JOL,JOL2,PIE,BIRTHDAY,Study1,M,64,63,JOL,User,-,"How likely are you to correctly recall the second item in the pair?|Type your response on a scale from 0-100 and then press Enter.",Study/JOL,"Study Phase2",653,,,277,520,,,,85,1
w10117470_kjt,rv1qtdidv7,"Mediated JOLs",1,123,2023-11-07T22:27:29+00:00,0.72341203689575,4,versionB_stim.csv,JOLVersion.csv,JOL,JOL2,AFFECTION,LOVE,Study1,F,86,65,JOL,User,-,"How likely are you to correctly recall the second item in the pair?|Type your response on a scale from 0-100 and then press Enter.",Study/JOL,"Study Phase2",620,,,139,369,,,,44,1
w10117470_kjt,rv1qtdidv7,"Mediated JOLs",1,124,2023-11-07T22:27:30+00:00,0.71642994880676,4,versionB_stim.csv,JOLVersion.csv,JOL,JOL2,GIVE,STEAK,Study1,U,93,84,JOL,User,-,"How likely are you to correctly recall the second item in the pair?|Type your response on a scale from 0-100 and then press Enter.",Study/JOL,"Study Phase2",614,,,172,401,,,,47,1
w10117470_kjt,rv1qtdidv7,"Mediated JOLs",1,125,2023-11-07T22:27:30+00:00,0.66503691673279,4,versionB_stim.csv,JOLVersion.csv,JOL,JOL2,MULE,DONKEY,Study1,F,85,106,JOL,User,-,"How likely are you to correctly recall the second item in the pair?|Type your response on a scale from 0-100 and then press Enter.",Study/JOL,"Study Phase2",566,,,163,359,,,,85,1
w10117470_kjt,rv1qtdidv7,"Mediated JOLs",1,126,2023-11-07T22:27:31+00:00,1.1557350158691,4,versionB_stim.csv,JOLVersion.csv,JOL,JOL2,WORD,SENTENCE,Study1,F,82,103,JOL,User,-,"How likely are you to correctly recall the second item in the pair?|Type your response on a scale from 0-100 and then press Enter.",Study/JOL,"Study Phase2",1048,,,499,787,,,,95,1
w10117470_kjt,rv1qtdidv7,"Mediated JOLs",1,127,2023-11-07T22:27:33+00:00,1.0564830303192,4,versionB_stim.csv,JOLVersion.csv,JOL,JOL2,WHEEL,HORSE,Study1,M,69,94,JOL,User,-,"How likely are you to correctly recall the second item in the pair?|Type your response on a scale from 0-100 and then press Enter.",Study/JOL,"Study Phase2",950,,,416,687,,,,58,1
w10117470_kjt,rv1qtdidv7,"Mediated JOLs",1,128,2023-11-07T22:27:34+00:00,1.8942708969116,4,versionB_stim.csv,JOLVersion.csv,JOL,JOL2,QUIET,WAR,Study1,M,63,80,JOL,User,-,"How likely are you to correctly recall the second item in the pair?|Type your response on a scale from 0-100 and then press Enter.",Study/JOL,"Study Phase2",1790,,,873,1090,,,,85,1
w10117470_kjt,rv1qtdidv7,"Mediated JOLs",1,129,2023-11-07T22:27:35+00:00,1.0133211612701,4,versionB_stim.csv,JOLVersion.csv,JOL,JOL2,SIP,DRINK,Study1,F,87,99,JOL,User,-,"How likely are you to correctly recall the second item in the pair?|Type your response on a scale from 0-100 and then press Enter.",Study/JOL,"Study Phase2",898,,,138,362,,,,54,1
w10117470_kjt,rv1qtdidv7,"Mediated JOLs",1,130,2023-11-07T22:27:36+00:00,0.63057899475098,4,versionB_stim.csv,JOLVersion.csv,JOL,JOL2,SIGN,TICK,Study1,U,102,74,JOL,User,-,"How likely are you to correctly recall the second item in the pair?|Type your response on a scale from 0-100 and then press Enter.",Study/JOL,"Study Phase2",524,,,69,257,,,,21,1
w10117470_kjt,rv1qtdidv7,"Mediated JOLs",1,131,2023-11-07T22:27:37+00:00,0.75971794128418,4,versionB_stim.csv,JOLVersion.csv,JOL,JOL2,STRIPES,LION,Study1,M,61,105,JOL,User,-,"How likely are you to correctly recall the second item in the pair?|Type your response on a scale from 0-100 and then press Enter.",Study/JOL,"Study Phase2",657,,,167,391,,,,45,1
w10117470_kjt,rv1qtdidv7,"Mediated JOLs",1,132,2023-11-07T22:27:38+00:00,0.71144104003906,4,versionB_stim.csv,JOLVersion.csv,JOL,JOL2,FUZZY,BANG,Study1,U,105,91,JOL,User,-,"How likely are you to correctly recall the second item in the pair?|Type your response on a scale from 0-100 and then press Enter.",Study/JOL,"Study Phase2",606,,,78,409,,,,89,1
w10117470_kjt,rv1qtdidv7,"Mediated JOLs",1,133,2023-11-07T22:27:38+00:00,0.71130704879761,4,versionB_stim.csv,JOLVersion.csv,JOL,JOL2,WAGE,MONEY,Study1,F,77,69,JOL,User,-,"How likely are you to correctly recall the second item in the pair?|Type your response on a scale from 0-100 and then press Enter.",Study/JOL,"Study Phase2",606,,,135,364,,,,74,1
w10117470_kjt,rv1qtdidv7,"Mediated JOLs",1,134,2023-11-07T22:27:39+00:00,0.63373303413391,4,versionB_stim.csv,JOLVersion.csv,JOL,JOL2,LITTER,TRASH,Study1,F,76,76,JOL,User,-,"How likely are you to correctly recall the second item in the pair?|Type your response on a scale from 0-100 and then press Enter.",Study/JOL,"Study Phase2",528,,,89,327,,,,56,1
w10117470_kjt,rv1qtdidv7,"Mediated JOLs",1,135,2023-11-07T22:27:40+00:00,0.72568988800049,4,versionB_stim.csv,JOLVersion.csv,JOL,JOL2,BOTTLE,CRY,Study1,M,71,104,JOL,User,-,"How likely are you to correctly recall the second item in the pair?|Type your response on a scale from 0-100 and then press Enter.",Study/JOL,"Study Phase2",617,,,130,397,,,,24,1
w10117470_kjt,rv1qtdidv7,"Mediated JOLs",1,136,2023-11-07T22:27:40+00:00,0.68100500106812,4,versionB_stim.csv,JOLVersion.csv,JOL,JOL2,SCALP,HEAD,Study1,F,78,92,JOL,User,-,"How likely are you to correctly recall the second item in the pair?|Type your response on a scale from 0-100 and then press Enter.",Study/JOL,"Study Phase2",574,,,137,370,,,,78,1
w10117470_kjt,rv1qtdidv7,"Mediated JOLs",1,137,2023-11-07T22:27:41+00:00,0.98932194709778,4,versionB_stim.csv,JOLVersion.csv,JOL,JOL2,SILK,ROUGH,Study1,M,65,98,JOL,User,-,"How likely are you to correctly recall the second item in the pair?|Type your response on a scale from 0-100 and then press Enter.",Study/JOL,"Study Phase2",870,,,220,479,,,,75,1
w10117470_kjt,rv1qtdidv7,"Mediated JOLs",1,138,2023-11-07T22:27:42+00:00,0.75216102600098,4,versionB_stim.csv,JOLVersion.csv,JOL,JOL2,DANCE,CIRCLE,Study1,M,68,78,JOL,User,-,"How likely are you to correctly recall the second item in the pair?|Type your response on a scale from 0-100 and then press Enter.",Study/JOL,"Study Phase2",647,,,193,430,,,,85,1
w10117470_kjt,rv1qtdidv7,"Mediated JOLs",1,139,2023-11-07T22:27:43+00:00,0.82537913322449,4,versionB_stim.csv,JOLVersion.csv,JOL,JOL2,MAZE,PHONE,Study1,U,97,95,JOL,User,-,"How likely are you to correctly recall the second item in the pair?|Type your response on a scale from 0-100 and then press Enter.",Study/JOL,"Study Phase2",722,,,252,512,,,,99,1
w10117470_kjt,rv1qtdidv7,"Mediated JOLs",1,140,2023-11-07T22:27:44+00:00,0.73799991607666,4,versionB_stim.csv,JOLVersion.csv,JOL,JOL2,SWAN,BIRD,Study1,F,81,73,JOL,User,-,"How likely are you to correctly recall the second item in the pair?|Type your response on a scale from 0-100 and then press Enter.",Study/JOL,"Study Phase2",634,,,269,493,,,,85,1
w10117470_kjt,rv1qtdidv7,"Mediated JOLs",1,141,2023-11-07T22:27:45+00:00,1.3665430545807,4,versionB_stim.csv,JOLVersion.csv,JOL,JOL2,HAIR,TOOTH,Study1,M,74,85,JOL,User,-,"How likely are you to correctly recall the second item in the pair?|Type your response on a scale from 0-100 and then press Enter.",Study/JOL,"Study Phase2",1259,,,550,1056,,,,77,1
w10117470_kjt,rv1qtdidv7,"Mediated JOLs",1,142,2023-11-07T22:27:45+00:00,0.45342683792114,4,versionB_stim.csv,JOLVersion.csv,JOL,JOL2,NAP,SLEEP,Study1,F,84,86,JOL,User,-,"How likely are you to correctly recall the second item in the pair?|Type your response on a scale from 0-100 and then press Enter.",Study/JOL,"Study Phase2",345,,,139,139,,,,4,1
w10117470_kjt,rv1qtdidv7,"Mediated JOLs",1,143,2023-11-07T22:27:47+00:00,1.7973899841309,4,versionB_stim.csv,JOLVersion.csv,JOL,JOL2,CREDIT,CARD,Study1,F,88,90,JOL,User,-,"How likely are you to correctly recall the second item in the pair?|Type your response on a scale from 0-100 and then press Enter.",Study/JOL,"Study Phase2",1693,,,-1,-1,,,,,1
w10117470_kjt,rv1qtdidv7,"Mediated JOLs",1,144,2023-11-07T22:27:48+00:00,1.2192070484161,4,versionB_stim.csv,JOLVersion.csv,JOL,JOL2,SOON,BELT,Study1,U,101,87,JOL,User,-,"How likely are you to correctly recall the second item in the pair?|Type your response on a scale from 0-100 and then press Enter.",Study/JOL,"Study Phase2",1113,,,746,925,,,,45,1
w10117470_kjt,rv1qtdidv7,"Mediated JOLs",1,145,2023-11-07T22:27:50+00:00,1.1202700138092,4,versionB_stim.csv,JOLVersion.csv,JOL,JOL2,LISTEN,FICTION,Study1,U,99,100,JOL,User,-,"How likely are you to correctly recall the second item in the pair?|Type your response on a scale from 0-100 and then press Enter.",Study/JOL,"Study Phase2",1007,,,516,780,,,,87,1
w10117470_kjt,rv1qtdidv7,"Mediated JOLs",1,146,2023-11-07T22:27:51+00:00,1.4478330612183,4,versionB_stim.csv,JOLVersion.csv,JOL,JOL2,ORCHID,FLOWER,Study1,F,89,66,JOL,User,-,"How likely are you to correctly recall the second item in the pair?|Type your response on a scale from 0-100 and then press Enter.",Study/JOL,"Study Phase2",1335,,,267,914,,,,85,1
w10117470_kjt,rv1qtdidv7,"Mediated JOLs",1,147,2023-11-07T22:27:52+00:00,0.85340690612793,4,versionB_stim.csv,JOLVersion.csv,JOL,JOL2,CAKE,HAND,Study1,U,104,75,JOL,User,-,"How likely are you to correctly recall the second item in the pair?|Type your response on a scale from 0-100 and then press Enter.",Study/JOL,"Study Phase2",749,,,216,499,,,,47,1
w10117470_kjt,rv1qtdidv7,"Mediated JOLs",1,148,2023-11-07T22:27:53+00:00,0.93964409828186,4,versionB_stim.csv,JOLVersion.csv,JOL,JOL2,MEAT,KEYS,Study1,U,96,72,JOL,User,-,"How likely are you to correctly recall the second item in the pair?|Type your response on a scale from 0-100 and then press Enter.",Study/JOL,"Study Phase2",839,,,162,509,,,,85,1
w10117470_kjt,rv1qtdidv7,"Mediated JOLs",1,149,2023-11-07T22:27:54+00:00,0.79579305648804,4,versionB_stim.csv,JOLVersion.csv,JOL,JOL2,CRACKLE,ELECTION,Study1,U,94,67,JOL,User,-,"How likely are you to correctly recall the second item in the pair?|Type your response on a scale from 0-100 and then press Enter.",Study/JOL,"Study Phase2",690,,,159,433,,,,24,1
w10117470_kjt,rv1qtdidv7,"Mediated JOLs",1,150,2023-11-07T22:27:54+00:00,0.89589691162109,4,versionB_stim.csv,JOLVersion.csv,JOL,JOL2,KEYS,ROD,Study1,U,100,102,JOL,User,-,"How likely are you to correctly recall the second item in the pair?|Type your response on a scale from 0-100 and then press Enter.",Study/JOL,"Study Phase2",790,,,254,562,,,,44,1
w10117470_kjt,rv1qtdidv7,"Mediated JOLs",1,151,2023-11-07T22:27:55+00:00,0.69278597831726,4,versionB_stim.csv,JOLVersion.csv,JOL,JOL2,STRETCH,CLOTH,Study1,U,92,79,JOL,User,-,"How likely are you to correctly recall the second item in the pair?|Type your response on a scale from 0-100 and then press Enter.",Study/JOL,"Study Phase2",582,,,132,289,,,,77,1
w10117470_kjt,rv1qtdidv7,"Mediated JOLs",1,152,2023-11-07T22:27:56+00:00,0.49119400978088,4,versionB_stim.csv,JOLVersion.csv,JOL,JOL2,TUNA,FISH,Study1,F,90,81,JOL,User,-,"How likely are you to correctly recall the second item in the pair?|Type your response on a scale from 0-100 and then press Enter.",Study/JOL,"Study Phase2",390,,,57,196,,,,88,1
w10117470_kjt,rv1qtdidv7,"Mediated JOLs",1,153,2023-11-07T22:27:56+00:00,0.5702850818634,4,versionB_stim.csv,JOLVersion.csv,JOL,JOL2,MULE,DONKEY,Study1,F,79,71,JOL,User,-,"How likely are you to correctly recall the second item in the pair?|Type your response on a scale from 0-100 and then press Enter.",Study/JOL,"Study Phase2",469,,,103,266,,,,44,1
w10117470_kjt,rv1qtdidv7,"Mediated JOLs",1,154,2023-11-07T22:27:57+00:00,0.4859619140625,4,versionB_stim.csv,JOLVersion.csv,JOL,JOL2,ROOT,PLANT,Study1,F,80,97,JOL,User,-,"How likely are you to correctly recall the second item in the pair?|Type your response on a scale from 0-100 and then press Enter.",Study/JOL,"Study Phase2",367,,,40,180,,,,55,1
w10117470_kjt,rv1qtdidv7,"Mediated JOLs",1,155,2023-11-07T22:27:57+00:00,0.64025902748108,4,versionB_stim.csv,JOLVersion.csv,JOL,JOL2,VEHICLE,CHARM,Study1,U,95,82,JOL,User,-,"How likely are you to correctly recall the second item in the pair?|Type your response on a scale from 0-100 and then press Enter.",Study/JOL,"Study Phase2",538,,,93,183,,,,44,1
w10117470_kjt,rv1qtdidv7,"Mediated JOLs",1,156,2023-11-07T22:27:58+00:00,0.29333710670471,4,versionB_stim.csv,JOLVersion.csv,JOL,JOL2,COTTON,HARD,Study1,M,75,89,JOL,User,-,"How likely are you to correctly recall the second item in the pair?|Type your response on a scale from 0-100 and then press Enter.",Study/JOL,"Study Phase2",182,,,-1,-1,,,,,1
w10117470_kjt,rv1qtdidv7,"Mediated JOLs",1,157,2023-11-07T22:27:58+00:00,0.17903685569763,4,versionB_stim.csv,JOLVersion.csv,JOL,JOL2,TEMPERATURE,MORNING,Study1,U,103,62,JOL,User,-,"How likely are you to correctly recall the second item in the pair?|Type your response on a scale from 0-100 and then press Enter.",Study/JOL,"Study Phase2",68,,,-1,-1,,,,,1
w10117470_kjt,rv1qtdidv7,"Mediated JOLs",1,158,2023-11-07T22:27:59+00:00,1.3260629177094,4,versionB_stim.csv,JOLVersion.csv,JOL,JOL2,DARK,DAY,Study1,M,73,101,JOL,User,-,"How likely are you to correctly recall the second item in the pair?|Type your response on a scale from 0-100 and then press Enter.",Study/JOL,"Study Phase2",1215,,,884,1024,,,,77,1
w10117470_kjt,rv1qtdidv7,"Mediated JOLs",1,159,2023-11-07T22:28:00+00:00,0.48161101341248,4,versionB_stim.csv,JOLVersion.csv,JOL,JOL2,CARPET,CEILING,Study1,M,70,88,JOL,User,-,"How likely are you to correctly recall the second item in the pair?|Type your response on a scale from 0-100 and then press Enter.",Study/JOL,"Study Phase2",373,,,60,201,,,,88,1
w10117470_kjt,rv1qtdidv7,"Mediated JOLs",1,160,2023-11-07T22:28:00+00:00,0.47808408737183,4,versionB_stim.csv,JOLVersion.csv,JOL,JOL2,MIRROR,MAROON,Study1,U,91,96,JOL,User,-,"How likely are you to correctly recall the second item in the pair?|Type your response on a scale from 0-100 and then press Enter.",Study/JOL,"Study Phase2",369,,,37,170,,,,99,1
w10117470_kjt,rv1qtdidv7,"Mediated JOLs",1,161,2023-11-07T22:28:01+00:00,0.62755012512207,4,versionB_stim.csv,JOLVersion.csv,JOL,JOL2,SHELL,SHAKE,Study1,U,98,93,JOL,User,-,"How likely are you to correctly recall the second item in the pair?|Type your response on a scale from 0-100 and then press Enter.",Study/JOL,"Study Phase2",521,,,28,219,,,,55,1
w10117470_kjt,rv1qtdidv7,"Mediated JOLs",1,162,2023-11-07T22:28:01+00:00,0.62930178642273,4,versionB_stim.csv,JOLVersion.csv,JOL,JOL2,PEANUT,BUTTER,BUFFER1,Buffer,58,60,JOL,User,-,"How likely are you to correctly recall the second item in the pair?|Type your response on a scale from 0-100 and then press Enter.",Study/JOL,BUFFER2,527,,,149,149,,,,2,1
w10117470_kjt,rv1qtdidv7,"Mediated JOLs",1,163,2023-11-07T22:28:02+00:00,0.73887014389038,4,versionB_stim.csv,JOLVersion.csv,JOL,JOL2,TREES,GREEN,BUFFER1,Buffer,56,58,JOL,User,-,"How likely are you to correctly recall the second item in the pair?|Type your response on a scale from 0-100 and then press Enter.",Study/JOL,BUFFER2,640,,,317,317,,,,5,1
w10117470_kjt,rv1qtdidv7,"Mediated JOLs",1,164,2023-11-07T22:28:03+00:00,0.78912091255188,4,versionB_stim.csv,JOLVersion.csv,JOL,JOL2,SHRIMP,FISH,BUFFER4,Buffer,53,54,JOL,User,-,"How likely are you to correctly recall the second item in the pair?|Type your response on a scale from 0-100 and then press Enter.",Study/JOL,BUFFER2,693,,,176,422,,,,75,1
w10117470_kjt,rv1qtdidv7,"Mediated JOLs",1,165,2023-11-07T22:28:04+00:00,0.74088716506958,4,versionB_stim.csv,JOLVersion.csv,JOL,JOL2,GEESE,GOOSE,BUFFER2,Buffer,106,108,JOL,User,-,"How likely are you to correctly recall the second item in the pair?|Type your response on a scale from 0-100 and then press Enter.",Study/JOL,BUFFER2,638,,,145,363,,,,25,1
w10117470_kjt,rv1qtdidv7,"Mediated JOLs",1,166,2023-11-07T22:28:04+00:00,0.8666079044342,4,versionB_stim.csv,JOLVersion.csv,JOL,JOL2,THING,STUFF,BUFFER2,Buffer,110,110,JOL,User,-,"How likely are you to correctly recall the second item in the pair?|Type your response on a scale from 0-100 and then press Enter.",Study/JOL,BUFFER2,762,,,175,520,,,,68,1
w10117470_kjt,rv1qtdidv7,"Mediated JOLs",1,167,2023-11-07T22:28:07+00:00,2.7742729187012,4,versionB_stim.csv,JOLVersion.csv,JOL,JOL2,,,,,,0,Instruct,User,-,"You have completed this section. Please press Enter.",Filler_Instruction,Instruct2,2662,,,483,483,,,,,1
w10117470_kjt,rv1qtdidv7,"Mediated JOLs",1,168,2023-11-07T22:30:07+00:00,120.2167570591,4,versionB_stim.csv,JOLVersion.csv,JOL,JOL2,,,,,,0,FreeRecall,120,120,"Please list the 50 US states in alphabetical order. The task will automatically advance to the next screen after two minutes.",,Filler1,120001,"ALABAMA ALASKA ARIZONA COLORADO FLORIDA ",0,5938,18532,0,0,,,1
w10117470_kjt,rv1qtdidv7,"Mediated JOLs",1,169,2023-11-07T22:30:19+00:00,11.22439789772,4,versionB_stim.csv,JOLVersion.csv,JOL,JOL2,,,,,,0,Instruct,-,10,"You will now be presented with the first word from each of the previously studied item pairs. Please type the missing word. If you do not know the word, you may guess or press Enter to skip forward to the next pair.",,Instruct3,11112,,,-1,-1,,,,,1
w10117470_kjt,rv1qtdidv7,"Mediated JOLs",1,170,2023-11-07T22:30:21+00:00,2.7489151954651,4,versionB_stim.csv,JOLVersion.csv,JOL,JOL2,HYGIENE,CLEAN,Study1,F,83,77,Test,User,-,,Recall,Recall2,2640,CLEAN,100,1762,2379,1,1,,,1
w10117470_kjt,rv1qtdidv7,"Mediated JOLs",1,171,2023-11-07T22:30:24+00:00,2.2475888729095,4,versionB_stim.csv,JOLVersion.csv,JOL,JOL2,TEMPERATURE,MORNING,Study1,U,103,62,Test,User,-,,Recall,Recall2,2139,HEAT,0,1831,2056,0,0,,,1
w10117470_kjt,rv1qtdidv7,"Mediated JOLs",1,172,2023-11-07T22:30:25+00:00,1.6229710578918,4,versionB_stim.csv,JOLVersion.csv,JOL,JOL2,LITTER,TRASH,Study1,F,76,76,Test,User,-,,Recall,Recall2,1510,TRASH,100,977,1286,1,1,,,1
w10117470_kjt,rv1qtdidv7,"Mediated JOLs",1,173,2023-11-07T22:30:26+00:00,0.85346388816833,4,versionB_stim.csv,JOLVersion.csv,JOL,JOL2,SILK,ROUGH,Study1,M,65,98,Test,User,-,,Recall,Recall2,751,,0,-1,-1,0,0,,,1
w10117470_kjt,rv1qtdidv7,"Mediated JOLs",1,174,2023-11-07T22:30:27+00:00,0.77198505401611,4,versionB_stim.csv,JOLVersion.csv,JOL,JOL2,MEAT,KEYS,Study1,U,96,72,Test,User,-,,Recall,Recall2,661,,0,-1,-1,0,0,,,1
w10117470_kjt,rv1qtdidv7,"Mediated JOLs",1,175,2023-11-07T22:30:28+00:00,1.2599289417267,4,versionB_stim.csv,JOLVersion.csv,JOL,JOL2,LISTEN,FICTION,Study1,U,99,100,Test,User,-,,Recall,Recall2,1146,,0,-1,-1,0,0,,,1
w10117470_kjt,rv1qtdidv7,"Mediated JOLs",1,176,2023-11-07T22:30:30+00:00,1.4358191490173,4,versionB_stim.csv,JOLVersion.csv,JOL,JOL2,CREDIT,CARD,Study1,F,88,90,Test,User,-,,Recall,Recall2,1316,CARD,100,918,1221,1,1,,,1
w10117470_kjt,rv1qtdidv7,"Mediated JOLs",1,177,2023-11-07T22:30:30+00:00,0.71553492546082,4,versionB_stim.csv,JOLVersion.csv,JOL,JOL2,FINGER,WEDDING,Study1,M,72,70,Test,User,-,,Recall,Recall2,610,,0,-1,-1,0,0,,,1
w10117470_kjt,rv1qtdidv7,"Mediated JOLs",1,178,2023-11-07T22:30:31+00:00,0.59709501266479,4,versionB_stim.csv,JOLVersion.csv,JOL,JOL2,BOX,BEACH,Study1,M,62,83,Test,User,-,,Recall,Recall2,488,,0,-1,-1,0,0,,,1
w10117470_kjt,rv1qtdidv7,"Mediated JOLs",1,179,2023-11-07T22:30:31+00:00,0.41031002998352,4,versionB_stim.csv,JOLVersion.csv,JOL,JOL2,COTTON,HARD,Study1,M,75,89,Test,User,-,,Recall,Recall2,306,,0,-1,-1,0,0,,,1
w10117470_kjt,rv1qtdidv7,"Mediated JOLs",1,180,2023-11-07T22:30:32+00:00,0.37571096420288,4,versionB_stim.csv,JOLVersion.csv,JOL,JOL2,VEHICLE,CHARM,Study1,U,95,82,Test,User,-,,Recall,Recall2,266,,0,-1,-1,0,0,,,1
w10117470_kjt,rv1qtdidv7,"Mediated JOLs",1,181,2023-11-07T22:30:32+00:00,0.30862212181091,4,versionB_stim.csv,JOLVersion.csv,JOL,JOL2,MIRROR,MAROON,Study1,U,91,96,Test,User,-,,Recall,Recall2,207,,0,-1,-1,0,0,,,1
w10117470_kjt,rv1qtdidv7,"Mediated JOLs",1,182,2023-11-07T22:30:32+00:00,0.26696395874023,4,versionB_stim.csv,JOLVersion.csv,JOL,JOL2,WAGE,MONEY,Study1,F,77,69,Test,User,-,,Recall,Recall2,162,,0,-1,-1,0,0,,,1
w10117470_kjt,rv1qtdidv7,"Mediated JOLs",1,183,2023-11-07T22:30:32+00:00,0.15129899978638,4,versionB_stim.csv,JOLVersion.csv,JOL,JOL2,DARK,DAY,Study1,M,73,101,Test,User,-,,Recall,Recall2,52,,0,-1,-1,0,0,,,1
w10117470_kjt,rv1qtdidv7,"Mediated JOLs",1,184,2023-11-07T22:30:34+00:00,1.1876049041748,4,versionB_stim.csv,JOLVersion.csv,JOL,JOL2,BOUNCE,BAT,Study1,M,67,68,Test,User,-,,Recall,Recall2,1087,SAD,33.333333333333,231,554,0,0,,,1
w10117470_kjt,rv1qtdidv7,"Mediated JOLs",1,185,2023-11-07T22:30:36+00:00,2.8072121143341,4,versionB_stim.csv,JOLVersion.csv,JOL,JOL2,MAZE,PHONE,Study1,U,97,95,Test,User,-,,Recall,Recall2,2688,CELL,22.222222222222,1552,2533,0,0,,,1
w10117470_kjt,rv1qtdidv7,"Mediated JOLs",1,186,2023-11-07T22:30:38+00:00,1.8769199848175,4,versionB_stim.csv,JOLVersion.csv,JOL,JOL2,QUIET,WAR,Study1,M,63,80,Test,User,-,,Recall,Recall2,1764,WAR,100,1491,1660,1,1,,,1
w10117470_kjt,rv1qtdidv7,"Mediated JOLs",1,187,2023-11-07T22:30:39+00:00,0.89246296882629,4,versionB_stim.csv,JOLVersion.csv,JOL,JOL2,BOTTLE,CRY,Study1,M,71,104,Test,User,-,,Recall,Recall2,772,,0,-1,-1,0,0,,,1
w10117470_kjt,rv1qtdidv7,"Mediated JOLs",1,188,2023-11-07T22:30:40+00:00,0.42056202888489,4,versionB_stim.csv,JOLVersion.csv,JOL,JOL2,GIVE,STEAK,Study1,U,93,84,Test,User,-,,Recall,Recall2,309,,0,-1,-1,0,0,,,1
w10117470_kjt,rv1qtdidv7,"Mediated JOLs",1,189,2023-11-07T22:30:40+00:00,0.3867609500885,4,versionB_stim.csv,JOLVersion.csv,JOL,JOL2,SOON,BELT,Study1,U,101,87,Test,User,-,,Recall,Recall2,274,,0,-1,-1,0,0,,,1
w10117470_kjt,rv1qtdidv7,"Mediated JOLs",1,190,2023-11-07T22:30:40+00:00,0.40127301216125,4,versionB_stim.csv,JOLVersion.csv,JOL,JOL2,NAP,SLEEP,Study1,F,84,86,Test,User,-,,Recall,Recall2,291,,0,-1,-1,0,0,,,1
w10117470_kjt,rv1qtdidv7,"Mediated JOLs",1,191,2023-11-07T22:30:41+00:00,0.4076509475708,4,versionB_stim.csv,JOLVersion.csv,JOL,JOL2,TUNA,FISH,Study1,F,90,81,Test,User,-,,Recall,Recall2,287,,0,-1,-1,0,0,,,1
w10117470_kjt,rv1qtdidv7,"Mediated JOLs",1,192,2023-11-07T22:30:41+00:00,0.52606105804443,4,versionB_stim.csv,JOLVersion.csv,JOL,JOL2,AFFECTION,LOVE,Study1,F,86,65,Test,User,-,,Recall,Recall2,422,,0,-1,-1,0,0,,,1
w10117470_kjt,rv1qtdidv7,"Mediated JOLs",1,193,2023-11-07T22:30:42+00:00,0.39290285110474,4,versionB_stim.csv,JOLVersion.csv,JOL,JOL2,PIE,BIRTHDAY,Study1,M,64,63,Test,User,-,,Recall,Recall2,279,,0,-1,-1,0,0,,,1
w10117470_kjt,rv1qtdidv7,"Mediated JOLs",1,194,2023-11-07T22:30:42+00:00,0.16255021095276,4,versionB_stim.csv,JOLVersion.csv,JOL,JOL2,STRIPES,LION,Study1,M,61,105,Test,User,-,,Recall,Recall2,54,,0,-1,-1,0,0,,,1
w10117470_kjt,rv1qtdidv7,"Mediated JOLs",1,195,2023-11-07T22:30:42+00:00,0.20678400993347,4,versionB_stim.csv,JOLVersion.csv,JOL,JOL2,SYRUP,TREE,Study1,M,66,64,Test,User,-,,Recall,Recall2,92,,0,-1,-1,0,0,,,1
w10117470_kjt,rv1qtdidv7,"Mediated JOLs",1,196,2023-11-07T22:30:42+00:00,0.14126086235046,4,versionB_stim.csv,JOLVersion.csv,JOL,JOL2,STRETCH,CLOTH,Study1,U,92,79,Test,User,-,,Recall,Recall2,36,,0,-1,-1,0,0,,,1
w10117470_kjt,rv1qtdidv7,"Mediated JOLs",1,197,2023-11-07T22:30:42+00:00,0.1601939201355,4,versionB_stim.csv,JOLVersion.csv,JOL,JOL2,HAIR,TOOTH,Study1,M,74,85,Test,User,-,,Recall,Recall2,45,,0,-1,-1,0,0,,,1
w10117470_kjt,rv1qtdidv7,"Mediated JOLs",1,198,2023-11-07T22:30:43+00:00,0.2945511341095,4,versionB_stim.csv,JOLVersion.csv,JOL,JOL2,SCALP,HEAD,Study1,F,78,92,Test,User,-,,Recall,Recall2,185,,0,-1,-1,0,0,,,1
w10117470_kjt,rv1qtdidv7,"Mediated JOLs",1,199,2023-11-07T22:30:43+00:00,0.49940204620361,4,versionB_stim.csv,JOLVersion.csv,JOL,JOL2,CRACKLE,ELECTION,Study1,U,94,67,Test,User,-,,Recall,Recall2,393,,0,-1,-1,0,0,,,1
w10117470_kjt,rv1qtdidv7,"Mediated JOLs",1,200,2023-11-07T22:30:44+00:00,0.38107085227966,4,versionB_stim.csv,JOLVersion.csv,JOL,JOL2,SHELL,SHAKE,Study1,U,98,93,Test,User,-,,Recall,Recall2,273,,0,-1,-1,0,0,,,1
w10117470_kjt,rv1qtdidv7,"Mediated JOLs",1,201,2023-11-07T22:30:44+00:00,0.25490713119507,4,versionB_stim.csv,JOLVersion.csv,JOL,JOL2,SWAN,BIRD,Study1,F,81,73,Test,User,-,,Recall,Recall2,146,,0,-1,-1,0,0,,,1
w10117470_kjt,rv1qtdidv7,"Mediated JOLs",1,202,2023-11-07T22:30:44+00:00,0.18424201011658,4,versionB_stim.csv,JOLVersion.csv,JOL,JOL2,SIGN,TICK,Study1,U,102,74,Test,User,-,,Recall,Recall2,75,,0,-1,-1,0,0,,,1
w10117470_kjt,rv1qtdidv7,"Mediated JOLs",1,203,2023-11-07T22:30:44+00:00,0.18826198577881,4,versionB_stim.csv,JOLVersion.csv,JOL,JOL2,MULE,DONKEY,Study1,F,85,106,Test,User,-,,Recall,Recall2,81,,0,-1,-1,0,0,,,1
w10117470_kjt,rv1qtdidv7,"Mediated JOLs",1,204,2023-11-07T22:30:45+00:00,0.30586695671082,4,versionB_stim.csv,JOLVersion.csv,JOL,JOL2,WORD,SENTENCE,Study1,F,82,103,Test,User,-,,Recall,Recall2,202,,0,-1,-1,0,0,,,1
w10117470_kjt,rv1qtdidv7,"Mediated JOLs",1,205,2023-11-07T22:30:45+00:00,0.30696892738342,4,versionB_stim.csv,JOLVersion.csv,JOL,JOL2,ORCHID,FLOWER,Study1,F,89,66,Test,User,-,,Recall,Recall2,206,,0,-1,-1,0,0,,,1
w10117470_kjt,rv1qtdidv7,"Mediated JOLs",1,206,2023-11-07T22:30:45+00:00,0.1781861782074,4,versionB_stim.csv,JOLVersion.csv,JOL,JOL2,SIP,DRINK,Study1,F,87,99,Test,User,-,,Recall,Recall2,65,,0,-1,-1,0,0,,,1
w10117470_kjt,rv1qtdidv7,"Mediated JOLs",1,207,2023-11-07T22:30:46+00:00,0.65413784980774,4,versionB_stim.csv,JOLVersion.csv,JOL,JOL2,CARPET,CEILING,Study1,M,70,88,Test,User,-,,Recall,Recall2,549,,0,-1,-1,0,0,,,1
w10117470_kjt,rv1qtdidv7,"Mediated JOLs",1,208,2023-11-07T22:30:46+00:00,0.37544202804565,4,versionB_stim.csv,JOLVersion.csv,JOL,JOL2,KEYS,ROD,Study1,U,100,102,Test,User,-,,Recall,Recall2,258,,0,-1,-1,0,0,,,1
w10117470_kjt,rv1qtdidv7,"Mediated JOLs",1,209,2023-11-07T22:30:46+00:00,0.36702108383179,4,versionB_stim.csv,JOLVersion.csv,JOL,JOL2,FUZZY,BANG,Study1,U,105,91,Test,User,-,,Recall,Recall2,254,,0,-1,-1,0,0,,,1
w10117470_kjt,rv1qtdidv7,"Mediated JOLs",1,210,2023-11-07T22:30:49+00:00,2.3322348594666,4,versionB_stim.csv,JOLVersion.csv,JOL,JOL2,WHEEL,HORSE,Study1,M,69,94,Test,User,-,,Recall,Recall2,2223,,0,-1,-1,0,0,,,1
w10117470_kjt,rv1qtdidv7,"Mediated JOLs",1,211,2023-11-07T22:30:49+00:00,0.42584609985352,4,versionB_stim.csv,JOLVersion.csv,JOL,JOL2,ROOT,PLANT,Study1,F,80,97,Test,User,-,,Recall,Recall2,314,,0,-1,-1,0,0,,,1
w10117470_kjt,rv1qtdidv7,"Mediated JOLs",1,212,2023-11-07T22:30:50+00:00,0.38677906990051,4,versionB_stim.csv,JOLVersion.csv,JOL,JOL2,DANCE,CIRCLE,Study1,M,68,78,Test,User,-,,Recall,Recall2,285,,0,-1,-1,0,0,,,1
w10117470_kjt,rv1qtdidv7,"Mediated JOLs",1,213,2023-11-07T22:30:50+00:00,0.39206981658936,4,versionB_stim.csv,JOLVersion.csv,JOL,JOL2,MULE,DONKEY,Study1,F,79,71,Test,User,-,,Recall,Recall2,289,,0,-1,-1,0,0,,,1
w10117470_kjt,rv1qtdidv7,"Mediated JOLs",1,214,2023-11-07T22:30:50+00:00,0.40989017486572,4,versionB_stim.csv,JOLVersion.csv,JOL,JOL2,CAKE,HAND,Study1,U,104,75,Test,User,-,,Recall,Recall2,296,,0,-1,-1,0,0,,,1
w10117470_kjt,rv1qtdidv7,"Mediated JOLs",1,215,2023-11-07T22:30:53+00:00,2.2633209228516,4,versionB_stim.csv,JOLVersion.csv,JOL,JOL2,,,,,,0,Instruct,User,-,"You have completed this section. Please press Enter.",,Instruct7,2148,,,-1,-1,,,,,1
w10117470_kjt,rv1qtdidv7,"Mediated JOLs",1,216,2023-11-07T22:30:54+00:00,1.4169940948486,4,versionB_stim.csv,JOLVersion.csv,JOL,JOL2,,,,,,0,Instruct,User,-,"The following screen will ask you a few questions abour your experience today. You must complete these questions to receive credit.",,Instruct8,1310,,,-1,-1,,,,,1
