Username,ID,ExperimentName,Session,Trial,Date,TimeDif,"Condition Number","Stimuli File","Order File","Condition Description","Condition Notes",Stimuli*Cue,Stimuli*Answer,Stimuli*Shuffle,"Stimuli*Stimuli Notes",Stimuli*Value,Procedure*Item,"Procedure*Trial Type","Procedure*Max Time","Procedure*Min Time",Procedure*Text,"Procedure*Procedure Notes",Procedure*Shuffle,Response*RT,Response*Response,Response*Accuracy,Response*RTfirst,Response*RTlast,Response*strictAcc,Response*lenientAcc,Response*focus,Response*JOL,Response*Focus
w10132740_fmm,w9be1suud5,"Mediated JOLs",1,1,2023-09-06T00:38:57+00:00,8.4518268108368,2,versionA_stim.csv,JOLVersion.csv,JOL,JOL1,,,,,,0,Instruct,-,5,"In this section, you will be presented with a series of word pairs. Please study each word pair! Your memory will be tested!",Initial_Instruct,Instruct1,8222,,,-1,-1,,,,,1
w10132740_fmm,w9be1suud5,"Mediated JOLs",1,2,2023-09-06T00:39:11+00:00,13.700387001038,2,versionA_stim.csv,JOLVersion.csv,JOL,JOL1,,,,,,0,Instruct,-,10,"As you study, you will be asked to rate your ability to remember the second item in the pair if you were only shown the first at test. You will make these ratings using a 0 to 100 Scale.",,Instruct13,13453,,,-1,-1,,,,,1
w10132740_fmm,w9be1suud5,"Mediated JOLs",1,3,2023-09-06T00:39:24+00:00,12.763894081116,2,versionA_stim.csv,JOLVersion.csv,JOL,JOL1,,,,,,0,Instruct,-,10,"For example, if you are given the pair CAT - DOG, a rating of 0 indicates that you would not remember DOG at test, while a rating of 100 indicates full certainty that you would remember the word DOG at test.",,Instruct14,12551,,,-1,-1,,,,,1
w10132740_fmm,w9be1suud5,"Mediated JOLs",1,4,2023-09-06T00:40:30+00:00,66.267641067505,2,versionA_stim.csv,JOLVersion.csv,JOL,JOL1,,,,,,0,Instruct,-,10,"When making your ratings, it is criticial that you use the full range of the scale. You will be disqualified for only giving ratings of 0 or 100! After making your rating, press Enter to advance to the next pair.",,Instruct15,65520,,,-1,-1,,,,,1
w10132740_fmm,w9be1suud5,"Mediated JOLs",1,5,2023-09-06T00:40:33+00:00,3.4244480133057,2,versionA_stim.csv,JOLVersion.csv,JOL,JOL1,,,,,,0,Instruct,User,-,"You will now begin the study. Press Enter when you are ready to begin.",,Instruct16,3154,,,-1,-1,,,,,1
w10132740_fmm,w9be1suud5,"Mediated JOLs",1,6,2023-09-06T00:40:40+00:00,6.8323390483856,2,versionA_stim.csv,JOLVersion.csv,JOL,JOL1,PITCHER,CATCHER,BUFFER1,Buffer,2,4,JOL,User,-,"How likely are you to correctly recall the second item in the pair?|Type your response on a scale from 0-100 and then press Enter.",Study/JOL,BUFFER,6610,,,5547,5874,,,,100,1
w10132740_fmm,w9be1suud5,"Mediated JOLs",1,7,2023-09-06T00:40:47+00:00,6.4535598754883,2,versionA_stim.csv,JOLVersion.csv,JOL,JOL1,PEANUT,BUTTER,BUFFER1,Buffer,3,3,JOL,User,-,"How likely are you to correctly recall the second item in the pair?|Type your response on a scale from 0-100 and then press Enter.",Study/JOL,BUFFER,6206,,,5228,5464,,,,100,1
w10132740_fmm,w9be1suud5,"Mediated JOLs",1,8,2023-09-06T00:40:50+00:00,2.9866979122162,2,versionA_stim.csv,JOLVersion.csv,JOL,JOL1,SCARE,FRIGHT,BUFFER1,Buffer,4,2,JOL,User,-,"How likely are you to correctly recall the second item in the pair?|Type your response on a scale from 0-100 and then press Enter.",Study/JOL,BUFFER,2732,,,2047,2047,,,,0,1
w10132740_fmm,w9be1suud5,"Mediated JOLs",1,9,2023-09-06T00:40:52+00:00,2.4066472053528,2,versionA_stim.csv,JOLVersion.csv,JOL,JOL1,TREES,GREEN,BUFFER1,Buffer,1,5,JOL,User,-,"How likely are you to correctly recall the second item in the pair?|Type your response on a scale from 0-100 and then press Enter.",Study/JOL,BUFFER,2135,,,1435,1435,,,,0,1
w10132740_fmm,w9be1suud5,"Mediated JOLs",1,10,2023-09-06T00:41:14+00:00,21.742286920547,2,versionA_stim.csv,JOLVersion.csv,JOL,JOL1,SPACE,JAM,BUFFER1,Buffer,5,6,JOL,User,-,"How likely are you to correctly recall the second item in the pair?|Type your response on a scale from 0-100 and then press Enter.",Study/JOL,BUFFER,21515,,,21000,21000,,,,0,1
w10132740_fmm,w9be1suud5,"Mediated JOLs",1,11,2023-09-06T00:41:16+00:00,2.2143459320068,2,versionA_stim.csv,JOLVersion.csv,JOL,JOL1,AFFECTION,LOVE,Study1,F,31,42,JOL,User,-,"How likely are you to correctly recall the second item in the pair?|Type your response on a scale from 0-100 and then press Enter.",Study/JOL,"Study Phase",2046,,,1245,1246,,,,0,1
w10132740_fmm,w9be1suud5,"Mediated JOLs",1,12,2023-09-06T00:41:19+00:00,2.5605399608612,2,versionA_stim.csv,JOLVersion.csv,JOL,JOL1,BOTTLE,CRY,Study1,M,16,20,JOL,User,-,"How likely are you to correctly recall the second item in the pair?|Type your response on a scale from 0-100 and then press Enter.",Study/JOL,"Study Phase",2402,,,1370,1370,,,,0,1
w10132740_fmm,w9be1suud5,"Mediated JOLs",1,13,2023-09-06T00:41:33+00:00,14.256234169006,2,versionA_stim.csv,JOLVersion.csv,JOL,JOL1,WHEEL,HORSE,Study1,M,14,48,JOL,User,-,"How likely are you to correctly recall the second item in the pair?|Type your response on a scale from 0-100 and then press Enter.",Study/JOL,"Study Phase",14043,,,13349,13349,,,,0,1
w10132740_fmm,w9be1suud5,"Mediated JOLs",1,14,2023-09-06T00:41:36+00:00,2.8255288600922,2,versionA_stim.csv,JOLVersion.csv,JOL,JOL1,MULE,DONKEY,Study1,F,30,14,JOL,User,-,"How likely are you to correctly recall the second item in the pair?|Type your response on a scale from 0-100 and then press Enter.",Study/JOL,"Study Phase",2679,,,1845,1845,,,,0,1
w10132740_fmm,w9be1suud5,"Mediated JOLs",1,15,2023-09-06T00:41:38+00:00,1.8729100227356,2,versionA_stim.csv,JOLVersion.csv,JOL,JOL1,MIRROR,MAROON,Study1,U,36,32,JOL,User,-,"How likely are you to correctly recall the second item in the pair?|Type your response on a scale from 0-100 and then press Enter.",Study/JOL,"Study Phase",1730,,,903,903,,,,0,1
w10132740_fmm,w9be1suud5,"Mediated JOLs",1,16,2023-09-06T00:41:41+00:00,3.296886920929,2,versionA_stim.csv,JOLVersion.csv,JOL,JOL1,LISTEN,FICTION,Study1,U,44,45,JOL,User,-,"How likely are you to correctly recall the second item in the pair?|Type your response on a scale from 0-100 and then press Enter.",Study/JOL,"Study Phase",2972,,,1416,1416,,,,0,1
w10132740_fmm,w9be1suud5,"Mediated JOLs",1,17,2023-09-06T00:41:46+00:00,4.7247400283813,2,versionA_stim.csv,JOLVersion.csv,JOL,JOL1,NAP,SLEEP,Study1,F,29,15,JOL,User,-,"How likely are you to correctly recall the second item in the pair?|Type your response on a scale from 0-100 and then press Enter.",Study/JOL,"Study Phase",4535,,,3526,3795,,,,80,1
w10132740_fmm,w9be1suud5,"Mediated JOLs",1,18,2023-09-06T00:41:50+00:00,4.3928661346436,2,versionA_stim.csv,JOLVersion.csv,JOL,JOL1,ORCHID,FLOWER,Study1,F,34,34,JOL,User,-,"How likely are you to correctly recall the second item in the pair?|Type your response on a scale from 0-100 and then press Enter.",Study/JOL,"Study Phase",4245,,,2006,3342,,,,90,1
w10132740_fmm,w9be1suud5,"Mediated JOLs",1,19,2023-09-06T00:41:56+00:00,5.7049088478088,2,versionA_stim.csv,JOLVersion.csv,JOL,JOL1,HYGIENE,CLEAN,Study1,F,28,25,JOL,User,-,"How likely are you to correctly recall the second item in the pair?|Type your response on a scale from 0-100 and then press Enter.",Study/JOL,"Study Phase",5416,,,4149,4149,,,,0,1
w10132740_fmm,w9be1suud5,"Mediated JOLs",1,20,2023-09-06T00:41:58+00:00,1.8860189914703,2,versionA_stim.csv,JOLVersion.csv,JOL,JOL1,SIP,DRINK,Study1,F,32,41,JOL,User,-,"How likely are you to correctly recall the second item in the pair?|Type your response on a scale from 0-100 and then press Enter.",Study/JOL,"Study Phase",1735,,,1094,1094,,,,0,1
w10132740_fmm,w9be1suud5,"Mediated JOLs",1,21,2023-09-06T00:42:00+00:00,2.6047260761261,2,versionA_stim.csv,JOLVersion.csv,JOL,JOL1,MEAT,KEYS,Study1,U,41,37,JOL,User,-,"How likely are you to correctly recall the second item in the pair?|Type your response on a scale from 0-100 and then press Enter.",Study/JOL,"Study Phase",2451,,,1362,1362,,,,0,1
w10132740_fmm,w9be1suud5,"Mediated JOLs",1,22,2023-09-06T00:42:02+00:00,2.0989489555359,2,versionA_stim.csv,JOLVersion.csv,JOL,JOL1,CARPET,CEILING,Study1,M,15,28,JOL,User,-,"How likely are you to correctly recall the second item in the pair?|Type your response on a scale from 0-100 and then press Enter.",Study/JOL,"Study Phase",1954,,,1200,1200,,,,0,1
w10132740_fmm,w9be1suud5,"Mediated JOLs",1,23,2023-09-06T00:42:06+00:00,3.5932881832123,2,versionA_stim.csv,JOLVersion.csv,JOL,JOL1,STRETCH,CLOTH,Study1,U,37,17,JOL,User,-,"How likely are you to correctly recall the second item in the pair?|Type your response on a scale from 0-100 and then press Enter.",Study/JOL,"Study Phase",3437,,,2326,2326,,,,0,1
w10132740_fmm,w9be1suud5,"Mediated JOLs",1,24,2023-09-06T00:42:12+00:00,5.848564863205,2,versionA_stim.csv,JOLVersion.csv,JOL,JOL1,MAZE,PHONE,Study1,U,42,50,JOL,User,-,"How likely are you to correctly recall the second item in the pair?|Type your response on a scale from 0-100 and then press Enter.",Study/JOL,"Study Phase",5634,,,4791,4791,,,,0,1
w10132740_fmm,w9be1suud5,"Mediated JOLs",1,25,2023-09-06T00:42:19+00:00,7.6175091266632,2,versionA_stim.csv,JOLVersion.csv,JOL,JOL1,PIE,BIRTHDAY,Study1,M,9,27,JOL,User,-,"How likely are you to correctly recall the second item in the pair?|Type your response on a scale from 0-100 and then press Enter.",Study/JOL,"Study Phase",7404,,,6531,6531,,,,0,1
w10132740_fmm,w9be1suud5,"Mediated JOLs",1,26,2023-09-06T00:42:22+00:00,3.1252288818359,2,versionA_stim.csv,JOLVersion.csv,JOL,JOL1,WAGE,MONEY,Study1,F,22,26,JOL,User,-,"How likely are you to correctly recall the second item in the pair?|Type your response on a scale from 0-100 and then press Enter.",Study/JOL,"Study Phase",2962,,,2084,2084,,,,0,1
w10132740_fmm,w9be1suud5,"Mediated JOLs",1,27,2023-09-06T00:42:25+00:00,2.5879690647125,2,versionA_stim.csv,JOLVersion.csv,JOL,JOL1,BOX,BEACH,Study1,M,7,7,JOL,User,-,"How likely are you to correctly recall the second item in the pair?|Type your response on a scale from 0-100 and then press Enter.",Study/JOL,"Study Phase",2249,,,1505,1505,,,,0,1
w10132740_fmm,w9be1suud5,"Mediated JOLs",1,28,2023-09-06T00:42:28+00:00,2.5540239810944,2,versionA_stim.csv,JOLVersion.csv,JOL,JOL1,COTTON,HARD,Study1,M,20,21,JOL,User,-,"How likely are you to correctly recall the second item in the pair?|Type your response on a scale from 0-100 and then press Enter.",Study/JOL,"Study Phase",2364,,,1647,1647,,,,0,1
w10132740_fmm,w9be1suud5,"Mediated JOLs",1,29,2023-09-06T00:42:37+00:00,9.1259648799896,2,versionA_stim.csv,JOLVersion.csv,JOL,JOL1,WORD,SENTENCE,Study1,F,27,10,JOL,User,-,"How likely are you to correctly recall the second item in the pair?|Type your response on a scale from 0-100 and then press Enter.",Study/JOL,"Study Phase",8892,,,8194,8194,,,,0,1
w10132740_fmm,w9be1suud5,"Mediated JOLs",1,30,2023-09-06T00:42:40+00:00,2.9152021408081,2,versionA_stim.csv,JOLVersion.csv,JOL,JOL1,SYRUP,TREE,Study1,M,11,30,JOL,User,-,"How likely are you to correctly recall the second item in the pair?|Type your response on a scale from 0-100 and then press Enter.",Study/JOL,"Study Phase",2761,,,1842,1842,,,,0,1
w10132740_fmm,w9be1suud5,"Mediated JOLs",1,31,2023-09-06T00:42:46+00:00,6.3590769767761,2,versionA_stim.csv,JOLVersion.csv,JOL,JOL1,CREDIT,CARD,Study1,F,33,22,JOL,User,-,"How likely are you to correctly recall the second item in the pair?|Type your response on a scale from 0-100 and then press Enter.",Study/JOL,"Study Phase",6142,,,4866,5438,,,,100,1
w10132740_fmm,w9be1suud5,"Mediated JOLs",1,32,2023-09-06T00:42:49+00:00,3.2552008628845,2,versionA_stim.csv,JOLVersion.csv,JOL,JOL1,DANCE,CIRCLE,Study1,M,13,23,JOL,User,-,"How likely are you to correctly recall the second item in the pair?|Type your response on a scale from 0-100 and then press Enter.",Study/JOL,"Study Phase",3099,,,1915,1915,,,,0,1
w10132740_fmm,w9be1suud5,"Mediated JOLs",1,33,2023-09-06T00:42:53+00:00,4.041225194931,2,versionA_stim.csv,JOLVersion.csv,JOL,JOL1,CAKE,HAND,Study1,U,49,35,JOL,User,-,"How likely are you to correctly recall the second item in the pair?|Type your response on a scale from 0-100 and then press Enter.",Study/JOL,"Study Phase",3884,,,3239,3239,,,,0,1
w10132740_fmm,w9be1suud5,"Mediated JOLs",1,34,2023-09-06T00:43:12+00:00,19.003687858582,2,versionA_stim.csv,JOLVersion.csv,JOL,JOL1,CRACKLE,ELECTION,Study1,U,39,38,JOL,User,-,"How likely are you to correctly recall the second item in the pair?|Type your response on a scale from 0-100 and then press Enter.",Study/JOL,"Study Phase",18684,,,17895,17895,,,,0,1
w10132740_fmm,w9be1suud5,"Mediated JOLs",1,35,2023-09-06T00:43:14+00:00,1.7661421298981,2,versionA_stim.csv,JOLVersion.csv,JOL,JOL1,SILK,ROUGH,Study1,M,10,44,JOL,User,-,"How likely are you to correctly recall the second item in the pair?|Type your response on a scale from 0-100 and then press Enter.",Study/JOL,"Study Phase",1570,,,906,906,,,,0,1
w10132740_fmm,w9be1suud5,"Mediated JOLs",1,36,2023-09-06T00:43:16+00:00,2.1547689437866,2,versionA_stim.csv,JOLVersion.csv,JOL,JOL1,GIVE,STEAK,Study1,U,38,8,JOL,User,-,"How likely are you to correctly recall the second item in the pair?|Type your response on a scale from 0-100 and then press Enter.",Study/JOL,"Study Phase",1844,,,950,950,,,,0,1
w10132740_fmm,w9be1suud5,"Mediated JOLs",1,37,2023-09-06T00:43:19+00:00,2.5590980052948,2,versionA_stim.csv,JOLVersion.csv,JOL,JOL1,SHELL,SHAKE,Study1,U,43,24,JOL,User,-,"How likely are you to correctly recall the second item in the pair?|Type your response on a scale from 0-100 and then press Enter.",Study/JOL,"Study Phase",2198,,,1273,1273,,,,0,1
w10132740_fmm,w9be1suud5,"Mediated JOLs",1,38,2023-09-06T00:43:21+00:00,2.3745288848877,2,versionA_stim.csv,JOLVersion.csv,JOL,JOL1,SIGN,TICK,Study1,U,47,18,JOL,User,-,"How likely are you to correctly recall the second item in the pair?|Type your response on a scale from 0-100 and then press Enter.",Study/JOL,"Study Phase",2017,,,1401,1401,,,,0,1
w10132740_fmm,w9be1suud5,"Mediated JOLs",1,39,2023-09-06T00:43:23+00:00,1.969752073288,2,versionA_stim.csv,JOLVersion.csv,JOL,JOL1,HAIR,TOOTH,Study1,M,19,9,JOL,User,-,"How likely are you to correctly recall the second item in the pair?|Type your response on a scale from 0-100 and then press Enter.",Study/JOL,"Study Phase",1814,,,1073,1073,,,,0,1
w10132740_fmm,w9be1suud5,"Mediated JOLs",1,40,2023-09-06T00:43:26+00:00,2.9932351112366,2,versionA_stim.csv,JOLVersion.csv,JOL,JOL1,LITTER,TRASH,Study1,F,21,39,JOL,User,-,"How likely are you to correctly recall the second item in the pair?|Type your response on a scale from 0-100 and then press Enter.",Study/JOL,"Study Phase",2773,,,1850,2103,,,,50,1
w10132740_fmm,w9be1suud5,"Mediated JOLs",1,41,2023-09-06T00:43:28+00:00,1.9047348499298,2,versionA_stim.csv,JOLVersion.csv,JOL,JOL1,KEYS,ROD,Study1,U,45,36,JOL,User,-,"How likely are you to correctly recall the second item in the pair?|Type your response on a scale from 0-100 and then press Enter.",Study/JOL,"Study Phase",1585,,,968,968,,,,0,1
w10132740_fmm,w9be1suud5,"Mediated JOLs",1,42,2023-09-06T00:43:30+00:00,1.8643441200256,2,versionA_stim.csv,JOLVersion.csv,JOL,JOL1,DARK,DAY,Study1,M,18,16,JOL,User,-,"How likely are you to correctly recall the second item in the pair?|Type your response on a scale from 0-100 and then press Enter.",Study/JOL,"Study Phase",1701,,,800,800,,,,0,1
w10132740_fmm,w9be1suud5,"Mediated JOLs",1,43,2023-09-06T00:43:32+00:00,1.8774609565735,2,versionA_stim.csv,JOLVersion.csv,JOL,JOL1,FUZZY,BANG,Study1,U,50,11,JOL,User,-,"How likely are you to correctly recall the second item in the pair?|Type your response on a scale from 0-100 and then press Enter.",Study/JOL,"Study Phase",1729,,,984,984,,,,0,1
w10132740_fmm,w9be1suud5,"Mediated JOLs",1,44,2023-09-06T00:43:34+00:00,2.1572780609131,2,versionA_stim.csv,JOLVersion.csv,JOL,JOL1,SWAN,BIRD,Study1,F,26,49,JOL,User,-,"How likely are you to correctly recall the second item in the pair?|Type your response on a scale from 0-100 and then press Enter.",Study/JOL,"Study Phase",2004,,,1327,1327,,,,0,1
w10132740_fmm,w9be1suud5,"Mediated JOLs",1,45,2023-09-06T00:43:36+00:00,2.0811378955841,2,versionA_stim.csv,JOLVersion.csv,JOL,JOL1,SOON,BELT,Study1,U,46,33,JOL,User,-,"How likely are you to correctly recall the second item in the pair?|Type your response on a scale from 0-100 and then press Enter.",Study/JOL,"Study Phase",1922,,,903,903,,,,0,1
w10132740_fmm,w9be1suud5,"Mediated JOLs",1,46,2023-09-06T00:43:38+00:00,2.2546820640564,2,versionA_stim.csv,JOLVersion.csv,JOL,JOL1,STRIPES,LION,Study1,M,6,43,JOL,User,-,"How likely are you to correctly recall the second item in the pair?|Type your response on a scale from 0-100 and then press Enter.",Study/JOL,"Study Phase",2087,,,1308,1308,,,,0,1
w10132740_fmm,w9be1suud5,"Mediated JOLs",1,47,2023-09-06T00:43:45+00:00,6.8957750797272,2,versionA_stim.csv,JOLVersion.csv,JOL,JOL1,FINGER,WEDDING,Study1,M,17,31,JOL,User,-,"How likely are you to correctly recall the second item in the pair?|Type your response on a scale from 0-100 and then press Enter.",Study/JOL,"Study Phase",6684,,,5644,5644,,,,0,1
w10132740_fmm,w9be1suud5,"Mediated JOLs",1,48,2023-09-06T00:43:51+00:00,6.0534379482269,2,versionA_stim.csv,JOLVersion.csv,JOL,JOL1,MULE,DONKEY,Study1,F,24,51,JOL,User,-,"How likely are you to correctly recall the second item in the pair?|Type your response on a scale from 0-100 and then press Enter.",Study/JOL,"Study Phase",5839,,,5173,5173,,,,0,1
w10132740_fmm,w9be1suud5,"Mediated JOLs",1,49,2023-09-06T00:43:55+00:00,3.676157951355,2,versionA_stim.csv,JOLVersion.csv,JOL,JOL1,TUNA,FISH,Study1,F,35,40,JOL,User,-,"How likely are you to correctly recall the second item in the pair?|Type your response on a scale from 0-100 and then press Enter.",Study/JOL,"Study Phase",3507,,,981,2622,,,,100,1
w10132740_fmm,w9be1suud5,"Mediated JOLs",1,50,2023-09-06T00:43:59+00:00,4.234680891037,2,versionA_stim.csv,JOLVersion.csv,JOL,JOL1,ROOT,PLANT,Study1,F,25,47,JOL,User,-,"How likely are you to correctly recall the second item in the pair?|Type your response on a scale from 0-100 and then press Enter.",Study/JOL,"Study Phase",4076,,,2991,3207,,,,50,1
w10132740_fmm,w9be1suud5,"Mediated JOLs",1,51,2023-09-06T00:44:02+00:00,2.4211120605469,2,versionA_stim.csv,JOLVersion.csv,JOL,JOL1,BOUNCE,BAT,Study1,M,12,29,JOL,User,-,"How likely are you to correctly recall the second item in the pair?|Type your response on a scale from 0-100 and then press Enter.",Study/JOL,"Study Phase",2275,,,1479,1479,,,,0,1
w10132740_fmm,w9be1suud5,"Mediated JOLs",1,52,2023-09-06T00:44:03+00:00,1.458976984024,2,versionA_stim.csv,JOLVersion.csv,JOL,JOL1,VEHICLE,CHARM,Study1,U,40,12,JOL,User,-,"How likely are you to correctly recall the second item in the pair?|Type your response on a scale from 0-100 and then press Enter.",Study/JOL,"Study Phase",1301,,,825,825,,,,0,1
w10132740_fmm,w9be1suud5,"Mediated JOLs",1,53,2023-09-06T00:44:06+00:00,3.0072319507599,2,versionA_stim.csv,JOLVersion.csv,JOL,JOL1,SCALP,HEAD,Study1,F,23,13,JOL,User,-,"How likely are you to correctly recall the second item in the pair?|Type your response on a scale from 0-100 and then press Enter.",Study/JOL,"Study Phase",2852,,,1870,2050,,,,50,1
w10132740_fmm,w9be1suud5,"Mediated JOLs",1,54,2023-09-06T00:44:08+00:00,1.754242181778,2,versionA_stim.csv,JOLVersion.csv,JOL,JOL1,TEMPERATURE,MORNING,Study1,U,48,19,JOL,User,-,"How likely are you to correctly recall the second item in the pair?|Type your response on a scale from 0-100 and then press Enter.",Study/JOL,"Study Phase",1602,,,1004,1004,,,,0,1
w10132740_fmm,w9be1suud5,"Mediated JOLs",1,55,2023-09-06T00:44:10+00:00,1.7638378143311,2,versionA_stim.csv,JOLVersion.csv,JOL,JOL1,QUIET,WAR,Study1,M,8,46,JOL,User,-,"How likely are you to correctly recall the second item in the pair?|Type your response on a scale from 0-100 and then press Enter.",Study/JOL,"Study Phase",1609,,,1175,1175,,,,0,1
w10132740_fmm,w9be1suud5,"Mediated JOLs",1,56,2023-09-06T00:44:13+00:00,2.9883921146393,2,versionA_stim.csv,JOLVersion.csv,JOL,JOL1,OCTOBER,SPOOKY,BUFFER3,Buffer,60,59,JOL,User,-,"How likely are you to correctly recall the second item in the pair?|Type your response on a scale from 0-100 and then press Enter.",Study/JOL,BUFFER2,2833,,,2016,2143,,,,50,1
w10132740_fmm,w9be1suud5,"Mediated JOLs",1,57,2023-09-06T00:44:14+00:00,1.707554101944,2,versionA_stim.csv,JOLVersion.csv,JOL,JOL1,TOOL,SHED,BUFFER3,Buffer,58,58,JOL,User,-,"How likely are you to correctly recall the second item in the pair?|Type your response on a scale from 0-100 and then press Enter.",Study/JOL,BUFFER2,1549,,,1126,1126,,,,0,1
w10132740_fmm,w9be1suud5,"Mediated JOLs",1,58,2023-09-06T00:44:18+00:00,3.558397769928,2,versionA_stim.csv,JOLVersion.csv,JOL,JOL1,ICE,FROZEN,BUFFER4,Buffer,109,107,JOL,User,-,"How likely are you to correctly recall the second item in the pair?|Type your response on a scale from 0-100 and then press Enter.",Study/JOL,BUFFER2,3396,,,2418,2544,,,,70,1
w10132740_fmm,w9be1suud5,"Mediated JOLs",1,59,2023-09-06T00:44:22+00:00,4.7289400100708,2,versionA_stim.csv,JOLVersion.csv,JOL,JOL1,MALT,CHOCOLATE,BUFFER2,Buffer,53,55,JOL,User,-,"How likely are you to correctly recall the second item in the pair?|Type your response on a scale from 0-100 and then press Enter.",Study/JOL,BUFFER2,4422,,,1711,3700,,,,0,1
w10132740_fmm,w9be1suud5,"Mediated JOLs",1,60,2023-09-06T00:44:26+00:00,3.2426030635834,2,versionA_stim.csv,JOLVersion.csv,JOL,JOL1,CARROT,POTATO,BUFFER4,Buffer,106,110,JOL,User,-,"How likely are you to correctly recall the second item in the pair?|Type your response on a scale from 0-100 and then press Enter.",Study/JOL,BUFFER2,3085,,,2034,2161,,,,50,1
w10132740_fmm,w9be1suud5,"Mediated JOLs",1,61,2023-09-06T00:44:27+00:00,1.5702731609344,2,versionA_stim.csv,JOLVersion.csv,JOL,JOL1,,,,,,0,Instruct,User,-,"You have completed this section. Please press Enter.",Filler_Instruction,Instruct2,1386,,,-1,-1,,,,,1
w10132740_fmm,w9be1suud5,"Mediated JOLs",1,62,2023-09-06T00:46:28+00:00,120.76906299591,2,versionA_stim.csv,JOLVersion.csv,JOL,JOL1,,,,,,0,FreeRecall,120,120,"Please list the 50 US states in alphabetical order. The task will automatically advance to the next screen after two minutes.",,Filler1,120000,"Alabama arkansas arizona california coloroad connecrticut delaware florida georgia hawaii indiana illinois idaho kentucky lousiania maine mississipi montaba massacusetts new york new jersey nevada ohio pennyslvania rhode island south dakota south california texas tenness",0,14432,119704,0,0,,,1
w10132740_fmm,w9be1suud5,"Mediated JOLs",1,63,2023-09-06T00:46:40+00:00,11.594952821732,2,versionA_stim.csv,JOLVersion.csv,JOL,JOL1,,,,,,0,Instruct,-,10,"You will now be presented with the first word from each of the previously studied item pairs. Please type the missing word. If you do not know the word, you may guess or press Enter to skip forward to the next pair.",,Instruct3,11259,,,-1,-1,,,,,1
w10132740_fmm,w9be1suud5,"Mediated JOLs",1,64,2023-09-06T00:46:43+00:00,2.8768939971924,2,versionA_stim.csv,JOLVersion.csv,JOL,JOL1,CRACKLE,ELECTION,Study1,U,39,38,Test,User,-,,Recall,Recall1,2721,pop,18.181818181818,1575,1870,0,0,,,1
w10132740_fmm,w9be1suud5,"Mediated JOLs",1,65,2023-09-06T00:46:45+00:00,2.8435759544373,2,versionA_stim.csv,JOLVersion.csv,JOL,JOL1,LISTEN,FICTION,Study1,U,44,45,Test,User,-,,Recall,Recall1,2683,ear,0,1534,1837,0,0,,,1
w10132740_fmm,w9be1suud5,"Mediated JOLs",1,66,2023-09-06T00:46:48+00:00,2.2309300899506,2,versionA_stim.csv,JOLVersion.csv,JOL,JOL1,CREDIT,CARD,Study1,F,33,22,Test,User,-,,Recall,Recall1,2073,card,100,848,1243,1,1,,,1
w10132740_fmm,w9be1suud5,"Mediated JOLs",1,67,2023-09-06T00:46:52+00:00,4.0873970985413,2,versionA_stim.csv,JOLVersion.csv,JOL,JOL1,CARPET,CEILING,Study1,M,15,28,Test,User,-,,Recall,Recall1,3946,rug,20,1897,3295,0,0,,,1
w10132740_fmm,w9be1suud5,"Mediated JOLs",1,68,2023-09-06T00:46:55+00:00,3.4935538768768,2,versionA_stim.csv,JOLVersion.csv,JOL,JOL1,MULE,DONKEY,Study1,F,30,14,Test,User,-,,Recall,Recall1,3337,donkey,100,1272,1932,1,1,,,1
w10132740_fmm,w9be1suud5,"Mediated JOLs",1,69,2023-09-06T00:47:01+00:00,6.2257471084595,2,versionA_stim.csv,JOLVersion.csv,JOL,JOL1,CAKE,HAND,Study1,U,49,35,Test,User,-,,Recall,Recall1,6005,icing,22.222222222222,3795,5332,0,0,,,1
w10132740_fmm,w9be1suud5,"Mediated JOLs",1,70,2023-09-06T00:47:04+00:00,2.5429890155792,2,versionA_stim.csv,JOLVersion.csv,JOL,JOL1,WORD,SENTENCE,Study1,F,27,10,Test,User,-,,Recall,Recall1,2388,bank,16.666666666667,1373,1705,0,0,,,1
w10132740_fmm,w9be1suud5,"Mediated JOLs",1,71,2023-09-06T00:47:07+00:00,3.4160919189453,2,versionA_stim.csv,JOLVersion.csv,JOL,JOL1,STRIPES,LION,Study1,M,6,43,Test,User,-,,Recall,Recall1,3256,shirt,22.222222222222,1675,2549,0,0,,,1
w10132740_fmm,w9be1suud5,"Mediated JOLs",1,72,2023-09-06T00:47:10+00:00,2.209105014801,2,versionA_stim.csv,JOLVersion.csv,JOL,JOL1,COTTON,HARD,Study1,M,20,21,Test,User,-,,Recall,Recall1,2053,hard,100,973,1406,1,1,,,1
w10132740_fmm,w9be1suud5,"Mediated JOLs",1,73,2023-09-06T00:47:13+00:00,3.491240978241,2,versionA_stim.csv,JOLVersion.csv,JOL,JOL1,MAZE,PHONE,Study1,U,42,50,Test,User,-,,Recall,Recall1,3336,corn,44.444444444444,2132,2576,0,0,,,1
w10132740_fmm,w9be1suud5,"Mediated JOLs",1,74,2023-09-06T00:47:20+00:00,6.6098289489746,2,versionA_stim.csv,JOLVersion.csv,JOL,JOL1,HYGIENE,CLEAN,Study1,F,28,25,Test,User,-,,Recall,Recall1,6393,clean,100,955,5529,1,1,,,1
w10132740_fmm,w9be1suud5,"Mediated JOLs",1,75,2023-09-06T00:47:22+00:00,2.721470117569,2,versionA_stim.csv,JOLVersion.csv,JOL,JOL1,KEYS,ROD,Study1,U,45,36,Test,User,-,,Recall,Recall1,2367,lock,28.571428571429,1344,1676,0,0,,,1
w10132740_fmm,w9be1suud5,"Mediated JOLs",1,76,2023-09-06T00:47:26+00:00,3.498724937439,2,versionA_stim.csv,JOLVersion.csv,JOL,JOL1,SIGN,TICK,Study1,U,47,18,Test,User,-,,Recall,Recall1,3324,stop,25,1985,2510,0,0,,,1
w10132740_fmm,w9be1suud5,"Mediated JOLs",1,77,2023-09-06T00:47:32+00:00,5.6565980911255,2,versionA_stim.csv,JOLVersion.csv,JOL,JOL1,BOX,BEACH,Study1,M,7,7,Test,User,-,,Recall,Recall1,5331,cart,22.222222222222,4181,4715,0,0,,,1
w10132740_fmm,w9be1suud5,"Mediated JOLs",1,78,2023-09-06T00:47:34+00:00,2.414922952652,2,versionA_stim.csv,JOLVersion.csv,JOL,JOL1,BOTTLE,CRY,Study1,M,16,20,Test,User,-,,Recall,Recall1,2091,cry,100,1162,1452,1,1,,,1
w10132740_fmm,w9be1suud5,"Mediated JOLs",1,79,2023-09-06T00:47:38+00:00,4.3647599220276,2,versionA_stim.csv,JOLVersion.csv,JOL,JOL1,ROOT,PLANT,Study1,F,25,47,Test,User,-,,Recall,Recall1,4211,plant,100,1829,3509,1,1,,,1
w10132740_fmm,w9be1suud5,"Mediated JOLs",1,80,2023-09-06T00:47:43+00:00,4.4883689880371,2,versionA_stim.csv,JOLVersion.csv,JOL,JOL1,PIE,BIRTHDAY,Study1,M,9,27,Test,User,-,,Recall,Recall1,4340,birthday,100,2411,3427,1,1,,,1
w10132740_fmm,w9be1suud5,"Mediated JOLs",1,81,2023-09-06T00:47:55+00:00,11.956777095795,2,versionA_stim.csv,JOLVersion.csv,JOL,JOL1,VEHICLE,CHARM,Study1,U,40,12,Test,User,-,,Recall,Recall1,11739,car,75,10784,10974,0,1,,,1
w10132740_fmm,w9be1suud5,"Mediated JOLs",1,82,2023-09-06T00:47:57+00:00,2.5996890068054,2,versionA_stim.csv,JOLVersion.csv,JOL,JOL1,SYRUP,TREE,Study1,M,11,30,Test,User,-,,Recall,Recall1,2445,sticky,20,1014,1774,0,0,,,1
w10132740_fmm,w9be1suud5,"Mediated JOLs",1,83,2023-09-06T00:48:06+00:00,8.8311588764191,2,versionA_stim.csv,JOLVersion.csv,JOL,JOL1,DANCE,CIRCLE,Study1,M,13,23,Test,User,-,,Recall,Recall1,4981,music,36.363636363636,3968,4398,0,0,,,1
w10132740_fmm,w9be1suud5,"Mediated JOLs",1,84,2023-09-06T00:48:11+00:00,4.6347670555115,2,versionA_stim.csv,JOLVersion.csv,JOL,JOL1,QUIET,WAR,Study1,M,8,46,Test,User,-,,Recall,Recall1,4450,mouse,0,3405,3906,0,0,,,1
w10132740_fmm,w9be1suud5,"Mediated JOLs",1,85,2023-09-06T00:48:16+00:00,4.7006690502167,2,versionA_stim.csv,JOLVersion.csv,JOL,JOL1,MIRROR,MAROON,Study1,U,36,32,Test,User,-,,Recall,Recall1,4541,reflection,37.5,1951,3609,0,0,,,1
w10132740_fmm,w9be1suud5,"Mediated JOLs",1,86,2023-09-06T00:48:19+00:00,3.5972430706024,2,versionA_stim.csv,JOLVersion.csv,JOL,JOL1,STRETCH,CLOTH,Study1,U,37,17,Test,User,-,,Recall,Recall1,3436,yoga,22.222222222222,1467,1937,0,0,,,1
w10132740_fmm,w9be1suud5,"Mediated JOLs",1,87,2023-09-06T00:48:22+00:00,3.091276884079,2,versionA_stim.csv,JOLVersion.csv,JOL,JOL1,TEMPERATURE,MORNING,Study1,U,48,19,Test,User,-,,Recall,Recall1,2927,morning,100,1350,2349,1,1,,,1
w10132740_fmm,w9be1suud5,"Mediated JOLs",1,88,2023-09-06T00:48:25+00:00,2.9441969394684,2,versionA_stim.csv,JOLVersion.csv,JOL,JOL1,LITTER,TRASH,Study1,F,21,39,Test,User,-,,Recall,Recall1,2785,trash,100,1348,1754,1,1,,,1
w10132740_fmm,w9be1suud5,"Mediated JOLs",1,89,2023-09-06T00:48:29+00:00,3.9998950958252,2,versionA_stim.csv,JOLVersion.csv,JOL,JOL1,GIVE,STEAK,Study1,U,38,8,Test,User,-,,Recall,Recall1,3843,take,66.666666666667,2868,3196,0,0,,,1
w10132740_fmm,w9be1suud5,"Mediated JOLs",1,90,2023-09-06T00:48:34+00:00,4.8760950565338,2,versionA_stim.csv,JOLVersion.csv,JOL,JOL1,FUZZY,BANG,Study1,U,50,11,Test,User,-,,Recall,Recall1,4722,dog,28.571428571429,3169,4089,0,0,,,1
w10132740_fmm,w9be1suud5,"Mediated JOLs",1,91,2023-09-06T00:48:37+00:00,3.1462199687958,2,versionA_stim.csv,JOLVersion.csv,JOL,JOL1,WHEEL,HORSE,Study1,M,14,48,Test,User,-,,Recall,Recall1,2986,wagon,20,1116,1754,0,0,,,1
w10132740_fmm,w9be1suud5,"Mediated JOLs",1,92,2023-09-06T00:48:40+00:00,3.1449048519135,2,versionA_stim.csv,JOLVersion.csv,JOL,JOL1,MULE,DONKEY,Study1,F,24,51,Test,User,-,,Recall,Recall1,2987,donkey,100,1434,2077,1,1,,,1
w10132740_fmm,w9be1suud5,"Mediated JOLs",1,93,2023-09-06T00:48:43+00:00,2.6865181922913,2,versionA_stim.csv,JOLVersion.csv,JOL,JOL1,FINGER,WEDDING,Study1,M,17,31,Test,User,-,,Recall,Recall1,2527,ring,54.545454545455,1542,1856,0,0,,,1
w10132740_fmm,w9be1suud5,"Mediated JOLs",1,94,2023-09-06T00:48:48+00:00,4.8558700084686,2,versionA_stim.csv,JOLVersion.csv,JOL,JOL1,HAIR,TOOTH,Study1,M,19,9,Test,User,-,,Recall,Recall1,4702,teeth,60,2543,3581,0,0,,,1
w10132740_fmm,w9be1suud5,"Mediated JOLs",1,95,2023-09-06T00:48:55+00:00,6.986799955368,2,versionA_stim.csv,JOLVersion.csv,JOL,JOL1,SILK,ROUGH,Study1,M,10,44,Test,User,-,,Recall,Recall1,6766,smooth,36.363636363636,4970,5913,0,0,,,1
w10132740_fmm,w9be1suud5,"Mediated JOLs",1,96,2023-09-06T00:48:57+00:00,2.1730439662933,2,versionA_stim.csv,JOLVersion.csv,JOL,JOL1,SCALP,HEAD,Study1,F,23,13,Test,User,-,,Recall,Recall1,2017,head,100,1153,1549,1,1,,,1
w10132740_fmm,w9be1suud5,"Mediated JOLs",1,97,2023-09-06T00:49:01+00:00,3.5949840545654,2,versionA_stim.csv,JOLVersion.csv,JOL,JOL1,BOUNCE,BAT,Study1,M,12,29,Test,User,-,,Recall,Recall1,3178,jump,0,1494,1976,0,0,,,1
w10132740_fmm,w9be1suud5,"Mediated JOLs",1,98,2023-09-06T00:49:03+00:00,2.6048798561096,2,versionA_stim.csv,JOLVersion.csv,JOL,JOL1,AFFECTION,LOVE,Study1,F,31,42,Test,User,-,,Recall,Recall1,2424,love,100,1542,1849,1,1,,,1
w10132740_fmm,w9be1suud5,"Mediated JOLs",1,99,2023-09-06T00:49:06+00:00,2.6091160774231,2,versionA_stim.csv,JOLVersion.csv,JOL,JOL1,MEAT,KEYS,Study1,U,41,37,Test,User,-,,Recall,Recall1,2439,ball,0,1254,1668,0,0,,,1
w10132740_fmm,w9be1suud5,"Mediated JOLs",1,100,2023-09-06T00:49:08+00:00,2.1350739002228,2,versionA_stim.csv,JOLVersion.csv,JOL,JOL1,TUNA,FISH,Study1,F,35,40,Test,User,-,,Recall,Recall1,1982,fish,100,897,1171,1,1,,,1
w10132740_fmm,w9be1suud5,"Mediated JOLs",1,101,2023-09-06T00:49:11+00:00,2.7811260223389,2,versionA_stim.csv,JOLVersion.csv,JOL,JOL1,SIP,DRINK,Study1,F,32,41,Test,User,-,,Recall,Recall1,2629,drink,100,1211,1940,1,1,,,1
w10132740_fmm,w9be1suud5,"Mediated JOLs",1,102,2023-09-06T00:49:14+00:00,2.8825991153717,2,versionA_stim.csv,JOLVersion.csv,JOL,JOL1,ORCHID,FLOWER,Study1,F,34,34,Test,User,-,,Recall,Recall1,2567,flower,100,1041,1574,1,1,,,1
w10132740_fmm,w9be1suud5,"Mediated JOLs",1,103,2023-09-06T00:49:17+00:00,3.0026199817657,2,versionA_stim.csv,JOLVersion.csv,JOL,JOL1,SOON,BELT,Study1,U,46,33,Test,User,-,,Recall,Recall1,2834,later,44.444444444444,1652,2231,0,0,,,1
w10132740_fmm,w9be1suud5,"Mediated JOLs",1,104,2023-09-06T00:49:23+00:00,5.8250548839569,2,versionA_stim.csv,JOLVersion.csv,JOL,JOL1,SWAN,BIRD,Study1,F,26,49,Test,User,-,,Recall,Recall1,5594,goose,0,2742,4736,0,0,,,1
w10132740_fmm,w9be1suud5,"Mediated JOLs",1,105,2023-09-06T00:49:27+00:00,4.1302440166473,2,versionA_stim.csv,JOLVersion.csv,JOL,JOL1,NAP,SLEEP,Study1,F,29,15,Test,User,-,,Recall,Recall1,3964,sleep,100,2830,3306,1,1,,,1
w10132740_fmm,w9be1suud5,"Mediated JOLs",1,106,2023-09-06T00:49:30+00:00,3.2842590808868,2,versionA_stim.csv,JOLVersion.csv,JOL,JOL1,SHELL,SHAKE,Study1,U,43,24,Test,User,-,,Recall,Recall1,3123,beach,20,2011,2441,0,0,,,1
w10132740_fmm,w9be1suud5,"Mediated JOLs",1,107,2023-09-06T00:49:33+00:00,3.4069380760193,2,versionA_stim.csv,JOLVersion.csv,JOL,JOL1,WAGE,MONEY,Study1,F,22,26,Test,User,-,,Recall,Recall1,3248,money,100,1583,2245,1,1,,,1
w10132740_fmm,w9be1suud5,"Mediated JOLs",1,108,2023-09-06T00:49:36+00:00,2.8529570102692,2,versionA_stim.csv,JOLVersion.csv,JOL,JOL1,DARK,DAY,Study1,M,18,16,Test,User,-,,Recall,Recall1,2589,night,0,1481,1969,0,0,,,1
w10132740_fmm,w9be1suud5,"Mediated JOLs",1,109,2023-09-06T00:50:44+00:00,67.821089982986,2,versionA_stim.csv,JOLVersion.csv,JOL,JOL1,,,,,,0,Instruct,-,10,"You will now be presented with a new set of word pairs. Please study each pair. Remember that your memory will be tested! When finished, press Enter to move to the next pair.",Initial_Instruct,Instruct4,67060,,,-1,-1,,,,,1
w10132740_fmm,w9be1suud5,"Mediated JOLs",1,110,2023-09-06T00:50:57+00:00,13.491677999496,2,versionA_stim.csv,JOLVersion.csv,JOL,JOL1,,,,,,0,Instruct,,10,"You will again be asked to rate your ability to remember these items using a 0 to 100 scale. Remember to use the full range of the scale!",,Instruct10,13168,,,-1,-1,,,,,1
w10132740_fmm,w9be1suud5,"Mediated JOLs",1,111,2023-09-06T00:50:59+00:00,1.4657559394836,2,versionA_stim.csv,JOLVersion.csv,JOL,JOL1,,,,,,0,Instruct,User,-,"Press Enter when you are readty to begin",,Instruct11,1226,,,-1,-1,,,,,1
w10132740_fmm,w9be1suud5,"Mediated JOLs",1,112,2023-09-06T00:51:04+00:00,4.9146230220795,2,versionA_stim.csv,JOLVersion.csv,JOL,JOL1,SPRING,MARCH,BUFFER3,Buffer,59,60,JOL,User,-,"How likely are you to correctly recall the second item in the pair?|Type your response on a scale from 0-100 and then press Enter.",Study/JOL,BUFFER2,4689,,,3494,3548,,,,50,1
w10132740_fmm,w9be1suud5,"Mediated JOLs",1,113,2023-09-06T00:51:10+00:00,6.3079390525818,2,versionA_stim.csv,JOLVersion.csv,JOL,JOL1,GEESE,GOOSE,BUFFER2,Buffer,51,52,JOL,User,-,"How likely are you to correctly recall the second item in the pair?|Type your response on a scale from 0-100 and then press Enter.",Study/JOL,BUFFER2,5676,,,2778,4767,,,,75,1
w10132740_fmm,w9be1suud5,"Mediated JOLs",1,114,2023-09-06T00:51:17+00:00,6.9470608234406,2,versionA_stim.csv,JOLVersion.csv,JOL,JOL1,CAMP,ADVENTURE,BUFFER4,Buffer,110,111,JOL,User,-,"How likely are you to correctly recall the second item in the pair?|Type your response on a scale from 0-100 and then press Enter.",Study/JOL,BUFFER2,6720,,,3795,4346,,,,30,1
w10132740_fmm,w9be1suud5,"Mediated JOLs",1,115,2023-09-06T00:51:21+00:00,3.6530890464783,2,versionA_stim.csv,JOLVersion.csv,JOL,JOL1,SHRIMP,FISH,BUFFER4,Buffer,108,108,JOL,User,-,"How likely are you to correctly recall the second item in the pair?|Type your response on a scale from 0-100 and then press Enter.",Study/JOL,BUFFER2,3498,,,2248,2498,,,,50,1
w10132740_fmm,w9be1suud5,"Mediated JOLs",1,116,2023-09-06T00:51:27+00:00,6.2479069232941,2,versionA_stim.csv,JOLVersion.csv,JOL,JOL1,NOODLE,STRING,BUFFER4,Buffer,107,109,JOL,User,-,"How likely are you to correctly recall the second item in the pair?|Type your response on a scale from 0-100 and then press Enter.",Study/JOL,BUFFER2,6026,,,5090,5141,,,,10,1
w10132740_fmm,w9be1suud5,"Mediated JOLs",1,117,2023-09-06T00:51:40+00:00,12.945293188095,2,versionA_stim.csv,JOLVersion.csv,JOL,JOL1,STRONG,ACCIDENT,Study2,U,94,67,JOL,User,-,"How likely are you to correctly recall the second item in the pair?|Type your response on a scale from 0-100 and then press Enter.",Study/JOL,"Study Phase2",12722,,,9847,11269,,,,40,1
w10132740_fmm,w9be1suud5,"Mediated JOLs",1,118,2023-09-06T00:51:43+00:00,2.8881678581238,2,versionA_stim.csv,JOLVersion.csv,JOL,JOL1,CHISEL,HAMMER,Study2,F,78,81,JOL,User,-,"How likely are you to correctly recall the second item in the pair?|Type your response on a scale from 0-100 and then press Enter.",Study/JOL,"Study Phase2",2728,,,1804,1805,,,,0,1
w10132740_fmm,w9be1suud5,"Mediated JOLs",1,119,2023-09-06T00:51:45+00:00,1.9149451255798,2,versionA_stim.csv,JOLVersion.csv,JOL,JOL1,ART,WOLF,Study2,U,93,99,JOL,User,-,"How likely are you to correctly recall the second item in the pair?|Type your response on a scale from 0-100 and then press Enter.",Study/JOL,"Study Phase2",1760,,,943,943,,,,0,1
w10132740_fmm,w9be1suud5,"Mediated JOLs",1,120,2023-09-06T00:51:50+00:00,4.921010017395,2,versionA_stim.csv,JOLVersion.csv,JOL,JOL1,DOCUMENT,PAPER,Study2,F,82,96,JOL,User,-,"How likely are you to correctly recall the second item in the pair?|Type your response on a scale from 0-100 and then press Enter.",Study/JOL,"Study Phase2",4750,,,1665,3485,,,,60,1
w10132740_fmm,w9be1suud5,"Mediated JOLs",1,121,2023-09-06T00:51:54+00:00,4.7129278182983,2,versionA_stim.csv,JOLVersion.csv,JOL,JOL1,COLLAR,PANTS,Study2,M,63,83,JOL,User,-,"How likely are you to correctly recall the second item in the pair?|Type your response on a scale from 0-100 and then press Enter.",Study/JOL,"Study Phase2",4545,,,3333,3553,,,,40,1
w10132740_fmm,w9be1suud5,"Mediated JOLs",1,122,2023-09-06T00:52:19+00:00,24.299030065536,2,versionA_stim.csv,JOLVersion.csv,JOL,JOL1,BLAZE,FIRE,Study2,F,81,66,JOL,User,-,"How likely are you to correctly recall the second item in the pair?|Type your response on a scale from 0-100 and then press Enter.",Study/JOL,"Study Phase2",23989,,,23246,23306,,,,40,0.475
w10132740_fmm,w9be1suud5,"Mediated JOLs",1,123,2023-09-06T00:52:22+00:00,3.6282799243927,2,versionA_stim.csv,JOLVersion.csv,JOL,JOL1,WASP,BUG,Study2,F,89,75,JOL,User,-,"How likely are you to correctly recall the second item in the pair?|Type your response on a scale from 0-100 and then press Enter.",Study/JOL,"Study Phase2",3352,,,2344,2443,,,,60,1
w10132740_fmm,w9be1suud5,"Mediated JOLs",1,124,2023-09-06T00:52:47+00:00,24.662245035172,2,versionA_stim.csv,JOLVersion.csv,JOL,JOL1,BOTH,OUNCE,Study2,U,102,69,JOL,User,-,"How likely are you to correctly recall the second item in the pair?|Type your response on a scale from 0-100 and then press Enter.",Study/JOL,"Study Phase2",24414,,,23638,23638,,,,0,1
w10132740_fmm,w9be1suud5,"Mediated JOLs",1,125,2023-09-06T00:52:50+00:00,2.881744146347,2,versionA_stim.csv,JOLVersion.csv,JOL,JOL1,LEAGUE,BASEBALL,Study2,F,84,105,JOL,User,-,"How likely are you to correctly recall the second item in the pair?|Type your response on a scale from 0-100 and then press Enter.",Study/JOL,"Study Phase2",2724,,,1873,2019,,,,40,1
w10132740_fmm,w9be1suud5,"Mediated JOLs",1,126,2023-09-06T00:52:53+00:00,3.3072988986969,2,versionA_stim.csv,JOLVersion.csv,JOL,JOL1,MIRROR,CHILDREN,Study2,U,104,79,JOL,User,-,"How likely are you to correctly recall the second item in the pair?|Type your response on a scale from 0-100 and then press Enter.",Study/JOL,"Study Phase2",3144,,,2070,2070,,,,0,1
w10132740_fmm,w9be1suud5,"Mediated JOLs",1,127,2023-09-06T00:52:56+00:00,2.4963281154633,2,versionA_stim.csv,JOLVersion.csv,JOL,JOL1,SNOW,SUMMER,Study2,M,61,88,JOL,User,-,"How likely are you to correctly recall the second item in the pair?|Type your response on a scale from 0-100 and then press Enter.",Study/JOL,"Study Phase2",2337,,,989,989,,,,0,1
w10132740_fmm,w9be1suud5,"Mediated JOLs",1,128,2023-09-06T00:52:57+00:00,1.665678024292,2,versionA_stim.csv,JOLVersion.csv,JOL,JOL1,CASH,LEG,Study2,U,105,68,JOL,User,-,"How likely are you to correctly recall the second item in the pair?|Type your response on a scale from 0-100 and then press Enter.",Study/JOL,"Study Phase2",1504,,,907,907,,,,0,1
w10132740_fmm,w9be1suud5,"Mediated JOLs",1,129,2023-09-06T00:53:01+00:00,3.2151730060577,2,versionA_stim.csv,JOLVersion.csv,JOL,JOL1,MUSCLE,RAZOR,Study2,M,75,84,JOL,User,-,"How likely are you to correctly recall the second item in the pair?|Type your response on a scale from 0-100 and then press Enter.",Study/JOL,"Study Phase2",3050,,,1094,2271,,,,30,1
w10132740_fmm,w9be1suud5,"Mediated JOLs",1,130,2023-09-06T00:53:05+00:00,4.0539648532867,2,versionA_stim.csv,JOLVersion.csv,JOL,JOL1,KNOB,WINDOW,Study2,M,74,106,JOL,User,-,"How likely are you to correctly recall the second item in the pair?|Type your response on a scale from 0-100 and then press Enter.",Study/JOL,"Study Phase2",3900,,,3379,3379,,,,0,1
w10132740_fmm,w9be1suud5,"Mediated JOLs",1,131,2023-09-06T00:53:07+00:00,2.1244869232178,2,versionA_stim.csv,JOLVersion.csv,JOL,JOL1,PUSH,CLUTTER,Study2,U,96,98,JOL,User,-,"How likely are you to correctly recall the second item in the pair?|Type your response on a scale from 0-100 and then press Enter.",Study/JOL,"Study Phase2",1954,,,1465,1465,,,,0,1
w10132740_fmm,w9be1suud5,"Mediated JOLs",1,132,2023-09-06T00:53:08+00:00,1.2153851985931,2,versionA_stim.csv,JOLVersion.csv,JOL,JOL1,SUGAR,RIDDLE,Study2,U,95,87,JOL,User,-,"How likely are you to correctly recall the second item in the pair?|Type your response on a scale from 0-100 and then press Enter.",Study/JOL,"Study Phase2",1044,,,898,899,,,,0,1
w10132740_fmm,w9be1suud5,"Mediated JOLs",1,133,2023-09-06T00:53:09+00:00,1.3718149662018,2,versionA_stim.csv,JOLVersion.csv,JOL,JOL1,LEASE,TOIL,Study2,U,101,65,JOL,User,-,"How likely are you to correctly recall the second item in the pair?|Type your response on a scale from 0-100 and then press Enter.",Study/JOL,"Study Phase2",1218,,,950,950,,,,0,1
w10132740_fmm,w9be1suud5,"Mediated JOLs",1,134,2023-09-06T00:53:11+00:00,1.2711288928986,2,versionA_stim.csv,JOLVersion.csv,JOL,JOL1,SEED,RAKE,Study2,M,69,62,JOL,User,-,"How likely are you to correctly recall the second item in the pair?|Type your response on a scale from 0-100 and then press Enter.",Study/JOL,"Study Phase2",1119,,,763,763,,,,0,1
w10132740_fmm,w9be1suud5,"Mediated JOLs",1,135,2023-09-06T00:53:18+00:00,7.1410579681396,2,versionA_stim.csv,JOLVersion.csv,JOL,JOL1,PEAK,VALLEY,Study2,M,73,97,JOL,User,-,"How likely are you to correctly recall the second item in the pair?|Type your response on a scale from 0-100 and then press Enter.",Study/JOL,"Study Phase2",6931,,,6261,6453,,,,30,1
w10132740_fmm,w9be1suud5,"Mediated JOLs",1,136,2023-09-06T00:53:21+00:00,3.0656270980835,2,versionA_stim.csv,JOLVersion.csv,JOL,JOL1,HORNET,STING,Study2,F,85,93,JOL,User,-,"How likely are you to correctly recall the second item in the pair?|Type your response on a scale from 0-100 and then press Enter.",Study/JOL,"Study Phase2",2915,,,2532,2637,,,,50,1
w10132740_fmm,w9be1suud5,"Mediated JOLs",1,137,2023-09-06T00:53:22+00:00,1.2366569042206,2,versionA_stim.csv,JOLVersion.csv,JOL,JOL1,BENCH,HORN,Study2,U,98,64,JOL,User,-,"How likely are you to correctly recall the second item in the pair?|Type your response on a scale from 0-100 and then press Enter.",Study/JOL,"Study Phase2",1081,,,904,904,,,,0,1
w10132740_fmm,w9be1suud5,"Mediated JOLs",1,138,2023-09-06T00:53:28+00:00,6.1719551086426,2,versionA_stim.csv,JOLVersion.csv,JOL,JOL1,ATTIRE,CLOTHES,Study2,F,79,77,JOL,User,-,"How likely are you to correctly recall the second item in the pair?|Type your response on a scale from 0-100 and then press Enter.",Study/JOL,"Study Phase2",5955,,,5785,5785,,,,0,1
w10132740_fmm,w9be1suud5,"Mediated JOLs",1,139,2023-09-06T00:53:29+00:00,1.086886882782,2,versionA_stim.csv,JOLVersion.csv,JOL,JOL1,ARTERY,BRONZE,Study2,U,103,91,JOL,User,-,"How likely are you to correctly recall the second item in the pair?|Type your response on a scale from 0-100 and then press Enter.",Study/JOL,"Study Phase2",933,,,775,775,,,,0,1
w10132740_fmm,w9be1suud5,"Mediated JOLs",1,140,2023-09-06T00:53:32+00:00,2.8973591327667,2,versionA_stim.csv,JOLVersion.csv,JOL,JOL1,BRIDGE,WATER,Study2,F,90,85,JOL,User,-,"How likely are you to correctly recall the second item in the pair?|Type your response on a scale from 0-100 and then press Enter.",Study/JOL,"Study Phase2",2734,,,2543,2543,,,,0,1
w10132740_fmm,w9be1suud5,"Mediated JOLs",1,141,2023-09-06T00:53:33+00:00,1.0085308551788,2,versionA_stim.csv,JOLVersion.csv,JOL,JOL1,HAPPY,CAR,Study2,U,92,89,JOL,User,-,"How likely are you to correctly recall the second item in the pair?|Type your response on a scale from 0-100 and then press Enter.",Study/JOL,"Study Phase2",850,,,608,608,,,,0,1
w10132740_fmm,w9be1suud5,"Mediated JOLs",1,142,2023-09-06T00:53:34+00:00,1.2635731697083,2,versionA_stim.csv,JOLVersion.csv,JOL,JOL1,KING,VASE,Study2,U,91,102,JOL,User,-,"How likely are you to correctly recall the second item in the pair?|Type your response on a scale from 0-100 and then press Enter.",Study/JOL,"Study Phase2",1109,,,829,829,,,,0,1
w10132740_fmm,w9be1suud5,"Mediated JOLs",1,143,2023-09-06T00:53:36+00:00,1.2816889286041,2,versionA_stim.csv,JOLVersion.csv,JOL,JOL1,DIETARY,SACK,Study2,U,97,94,JOL,User,-,"How likely are you to correctly recall the second item in the pair?|Type your response on a scale from 0-100 and then press Enter.",Study/JOL,"Study Phase2",1124,,,916,916,,,,0,1
w10132740_fmm,w9be1suud5,"Mediated JOLs",1,144,2023-09-06T00:53:39+00:00,2.864394903183,2,versionA_stim.csv,JOLVersion.csv,JOL,JOL1,CHOP,CUT,Study2,F,77,74,JOL,User,-,"How likely are you to correctly recall the second item in the pair?|Type your response on a scale from 0-100 and then press Enter.",Study/JOL,"Study Phase2",2702,,,2241,2391,,,,70,1
w10132740_fmm,w9be1suud5,"Mediated JOLs",1,145,2023-09-06T00:53:47+00:00,8.6530830860138,2,versionA_stim.csv,JOLVersion.csv,JOL,JOL1,HERD,COW,Study2,F,88,95,JOL,User,-,"How likely are you to correctly recall the second item in the pair?|Type your response on a scale from 0-100 and then press Enter.",Study/JOL,"Study Phase2",5079,,,4813,4813,,,,0,1
w10132740_fmm,w9be1suud5,"Mediated JOLs",1,146,2023-09-06T00:53:49+00:00,1.9994060993195,2,versionA_stim.csv,JOLVersion.csv,JOL,JOL1,LAWYER,NURSE,Study2,M,66,80,JOL,User,-,"How likely are you to correctly recall the second item in the pair?|Type your response on a scale from 0-100 and then press Enter.",Study/JOL,"Study Phase2",1812,,,1508,1508,,,,0,1
w10132740_fmm,w9be1suud5,"Mediated JOLs",1,147,2023-09-06T00:53:53+00:00,3.8483049869537,2,versionA_stim.csv,JOLVersion.csv,JOL,JOL1,SMELL,EYES,Study2,M,65,73,JOL,User,-,"How likely are you to correctly recall the second item in the pair?|Type your response on a scale from 0-100 and then press Enter.",Study/JOL,"Study Phase2",3566,,,1390,3232,,,,20,1
w10132740_fmm,w9be1suud5,"Mediated JOLs",1,148,2023-09-06T00:53:55+00:00,1.5632150173187,2,versionA_stim.csv,JOLVersion.csv,JOL,JOL1,THIGH,GRILL,Study2,M,72,78,JOL,User,-,"How likely are you to correctly recall the second item in the pair?|Type your response on a scale from 0-100 and then press Enter.",Study/JOL,"Study Phase2",1326,,,1063,1063,,,,0,1
w10132740_fmm,w9be1suud5,"Mediated JOLs",1,149,2023-09-06T00:53:56+00:00,1.0909860134125,2,versionA_stim.csv,JOLVersion.csv,JOL,JOL1,CACTUS,PLANT,Study2,F,76,101,JOL,User,-,"How likely are you to correctly recall the second item in the pair?|Type your response on a scale from 0-100 and then press Enter.",Study/JOL,"Study Phase2",939,,,733,733,,,,0,1
w10132740_fmm,w9be1suud5,"Mediated JOLs",1,150,2023-09-06T00:53:57+00:00,1.2607579231262,2,versionA_stim.csv,JOLVersion.csv,JOL,JOL1,STOP,SCHOOL,Study2,M,62,86,JOL,User,-,"How likely are you to correctly recall the second item in the pair?|Type your response on a scale from 0-100 and then press Enter.",Study/JOL,"Study Phase2",1070,,,951,951,,,,0,1
w10132740_fmm,w9be1suud5,"Mediated JOLs",1,151,2023-09-06T00:53:58+00:00,1.3450970649719,2,versionA_stim.csv,JOLVersion.csv,JOL,JOL1,SICK,HIDE,Study2,U,100,100,JOL,User,-,"How likely are you to correctly recall the second item in the pair?|Type your response on a scale from 0-100 and then press Enter.",Study/JOL,"Study Phase2",972,,,686,686,,,,0,1
w10132740_fmm,w9be1suud5,"Mediated JOLs",1,152,2023-09-06T00:54:01+00:00,2.3548738956451,2,versionA_stim.csv,JOLVersion.csv,JOL,JOL1,FEUD,FIGHT,Study2,F,86,72,JOL,User,-,"How likely are you to correctly recall the second item in the pair?|Type your response on a scale from 0-100 and then press Enter.",Study/JOL,"Study Phase2",2197,,,627,2016,,,,30,1
w10132740_fmm,w9be1suud5,"Mediated JOLs",1,153,2023-09-06T00:54:03+00:00,2.4550111293793,2,versionA_stim.csv,JOLVersion.csv,JOL,JOL1,DRINK,SOAP,Study2,M,67,104,JOL,User,-,"How likely are you to correctly recall the second item in the pair?|Type your response on a scale from 0-100 and then press Enter.",Study/JOL,"Study Phase2",2166,,,1832,1928,,,,20,1
w10132740_fmm,w9be1suud5,"Mediated JOLs",1,154,2023-09-06T00:54:07+00:00,3.4289419651031,2,versionA_stim.csv,JOLVersion.csv,JOL,JOL1,CHILL,COLD,Study2,F,87,90,JOL,User,-,"How likely are you to correctly recall the second item in the pair?|Type your response on a scale from 0-100 and then press Enter.",Study/JOL,"Study Phase2",3164,,,876,2623,,,,30,1
w10132740_fmm,w9be1suud5,"Mediated JOLs",1,155,2023-09-06T00:54:09+00:00,2.7188220024109,2,versionA_stim.csv,JOLVersion.csv,JOL,JOL1,FEATHER,HEAVY,Study2,M,68,92,JOL,User,-,"How likely are you to correctly recall the second item in the pair?|Type your response on a scale from 0-100 and then press Enter.",Study/JOL,"Study Phase2",2482,,,2109,2206,,,,40,1
w10132740_fmm,w9be1suud5,"Mediated JOLs",1,156,2023-09-06T00:54:11+00:00,1.3317368030548,2,versionA_stim.csv,JOLVersion.csv,JOL,JOL1,INCENSE,SMELL,Study2,F,83,70,JOL,User,-,"How likely are you to correctly recall the second item in the pair?|Type your response on a scale from 0-100 and then press Enter.",Study/JOL,"Study Phase2",1166,,,704,804,,,,40,1
w10132740_fmm,w9be1suud5,"Mediated JOLs",1,157,2023-09-06T00:54:12+00:00,1.2989461421967,2,versionA_stim.csv,JOLVersion.csv,JOL,JOL1,CAVE,TRAP,Study2,M,70,76,JOL,User,-,"How likely are you to correctly recall the second item in the pair?|Type your response on a scale from 0-100 and then press Enter.",Study/JOL,"Study Phase2",1150,,,621,740,,,,40,1
w10132740_fmm,w9be1suud5,"Mediated JOLs",1,158,2023-09-06T00:54:15+00:00,2.925803899765,2,versionA_stim.csv,JOLVersion.csv,JOL,JOL1,BASKET,OVEN,Study2,M,71,63,JOL,User,-,"How likely are you to correctly recall the second item in the pair?|Type your response on a scale from 0-100 and then press Enter.",Study/JOL,"Study Phase2",2762,,,2246,2372,,,,40,1
w10132740_fmm,w9be1suud5,"Mediated JOLs",1,159,2023-09-06T00:54:17+00:00,2.1515929698944,2,versionA_stim.csv,JOLVersion.csv,JOL,JOL1,CHERRY,RED,Study2,F,80,82,JOL,User,-,"How likely are you to correctly recall the second item in the pair?|Type your response on a scale from 0-100 and then press Enter.",Study/JOL,"Study Phase2",1993,,,1318,1451,,,,40,1
w10132740_fmm,w9be1suud5,"Mediated JOLs",1,160,2023-09-06T00:54:18+00:00,1.4304330348969,2,versionA_stim.csv,JOLVersion.csv,JOL,JOL1,ISLAND,REALITY,Study2,M,64,71,JOL,User,-,"How likely are you to correctly recall the second item in the pair?|Type your response on a scale from 0-100 and then press Enter.",Study/JOL,"Study Phase2",1264,,,761,859,,,,40,1
w10132740_fmm,w9be1suud5,"Mediated JOLs",1,161,2023-09-06T00:54:21+00:00,3.0071220397949,2,versionA_stim.csv,JOLVersion.csv,JOL,JOL1,DEATH,BUSINESS,Study2,U,99,103,JOL,User,-,"How likely are you to correctly recall the second item in the pair?|Type your response on a scale from 0-100 and then press Enter.",Study/JOL,"Study Phase2",2852,,,1044,2661,,,,30,1
w10132740_fmm,w9be1suud5,"Mediated JOLs",1,162,2023-09-06T00:54:24+00:00,2.5271389484406,2,versionA_stim.csv,JOLVersion.csv,JOL,JOL1,MOON,SPACE,BUFFER2,Buffer,54,54,JOL,User,-,"How likely are you to correctly recall the second item in the pair?|Type your response on a scale from 0-100 and then press Enter.",Study/JOL,BUFFER2,2366,,,1994,2216,,,,45,1
w10132740_fmm,w9be1suud5,"Mediated JOLs",1,163,2023-09-06T00:54:28+00:00,4.0101799964905,2,versionA_stim.csv,JOLVersion.csv,JOL,JOL1,THING,STUFF,BUFFER2,Buffer,55,56,JOL,User,-,"How likely are you to correctly recall the second item in the pair?|Type your response on a scale from 0-100 and then press Enter.",Study/JOL,BUFFER2,3851,,,1364,3554,,,,20,1
w10132740_fmm,w9be1suud5,"Mediated JOLs",1,164,2023-09-06T00:54:31+00:00,3.197380065918,2,versionA_stim.csv,JOLVersion.csv,JOL,JOL1,DAYS,WEAKS,BUFFER3,Buffer,56,61,JOL,User,-,"How likely are you to correctly recall the second item in the pair?|Type your response on a scale from 0-100 and then press Enter.",Study/JOL,BUFFER2,3037,,,2610,2694,,,,20,1
w10132740_fmm,w9be1suud5,"Mediated JOLs",1,165,2023-09-06T00:54:33+00:00,2.263279914856,2,versionA_stim.csv,JOLVersion.csv,JOL,JOL1,SHERRIF,POLICE,BUFFER2,Buffer,52,53,JOL,User,-,"How likely are you to correctly recall the second item in the pair?|Type your response on a scale from 0-100 and then press Enter.",Study/JOL,BUFFER2,2111,,,832,1870,,,,30,1
w10132740_fmm,w9be1suud5,"Mediated JOLs",1,166,2023-09-06T00:54:36+00:00,2.4620101451874,2,versionA_stim.csv,JOLVersion.csv,JOL,JOL1,MONTH,YEAR,BUFFER3,Buffer,57,57,JOL,User,-,"How likely are you to correctly recall the second item in the pair?|Type your response on a scale from 0-100 and then press Enter.",Study/JOL,BUFFER2,2310,,,1823,2093,,,,100,1
w10132740_fmm,w9be1suud5,"Mediated JOLs",1,167,2023-09-06T00:54:37+00:00,0.87116003036499,2,versionA_stim.csv,JOLVersion.csv,JOL,JOL1,,,,,,0,Instruct,User,-,"You have completed this section. Please press Enter.",Filler_Instruction,Instruct2,725,,,-1,-1,,,,,1
w10132740_fmm,w9be1suud5,"Mediated JOLs",1,168,2023-09-06T00:56:38+00:00,120.76257896423,2,versionA_stim.csv,JOLVersion.csv,JOL,JOL1,,,,,,0,FreeRecall,120,120,"Please list the 50 US states in alphabetical order. The task will automatically advance to the next screen after two minutes.",,Filler1,120001,"arizona alabama arkanasas connecticut ciokarda delware geroergia florida hawaii idaho illinois kanasas kentycky lousiania maine massachutsetts' mississippi north dakota\north carolina nevada ohio pennsylvania rhode island soit dakkota south carolins tennessee texas utah virginain] west virgina ' west dakota ",0,4031,119803,0,0,,,1
w10132740_fmm,w9be1suud5,"Mediated JOLs",1,169,2023-09-06T00:56:54+00:00,16.376909017563,2,versionA_stim.csv,JOLVersion.csv,JOL,JOL1,,,,,,0,Instruct,-,10,"You will now be presented with the first word from each of the previously studied item pairs. Please type the missing word. If you do not know the word, you may guess or press Enter to skip forward to the next pair.",,Instruct3,16046,,,-1,-1,,,,,1
w10132740_fmm,w9be1suud5,"Mediated JOLs",1,170,2023-09-06T00:56:56+00:00,2.3808460235596,2,versionA_stim.csv,JOLVersion.csv,JOL,JOL1,CHILL,COLD,Study2,F,87,90,Test,User,-,,Recall,Recall2,2235,cold,100,1703,2101,1,1,,,1
w10132740_fmm,w9be1suud5,"Mediated JOLs",1,171,2023-09-06T00:56:59+00:00,2.1899418830872,2,versionA_stim.csv,JOLVersion.csv,JOL,JOL1,CASH,LEG,Study2,U,105,68,Test,User,-,,Recall,Recall2,2031,money,25,1217,1796,0,0,,,1
w10132740_fmm,w9be1suud5,"Mediated JOLs",1,172,2023-09-06T00:57:02+00:00,3.3053181171417,2,versionA_stim.csv,JOLVersion.csv,JOL,JOL1,INCENSE,SMELL,Study2,F,83,70,Test,User,-,,Recall,Recall2,3145,smell,100,933,2733,1,1,,,1
w10132740_fmm,w9be1suud5,"Mediated JOLs",1,173,2023-09-06T00:57:14+00:00,11.955516815186,2,versionA_stim.csv,JOLVersion.csv,JOL,JOL1,DIETARY,SACK,Study2,U,97,94,Test,User,-,,Recall,Recall2,11744,nutriton,0,9328,11398,0,0,,,1
w10132740_fmm,w9be1suud5,"Mediated JOLs",1,174,2023-09-06T00:57:19+00:00,5.4481430053711,2,versionA_stim.csv,JOLVersion.csv,JOL,JOL1,CHERRY,RED,Study2,F,80,82,Test,User,-,,Recall,Recall2,5216,coke,28.571428571429,3752,5042,0,0,,,1
w10132740_fmm,w9be1suud5,"Mediated JOLs",1,175,2023-09-06T00:57:23+00:00,4.129643201828,2,versionA_stim.csv,JOLVersion.csv,JOL,JOL1,CACTUS,PLANT,Study2,F,76,101,Test,User,-,,Recall,Recall2,3974,desert,18.181818181818,3002,3819,0,0,,,1
w10132740_fmm,w9be1suud5,"Mediated JOLs",1,176,2023-09-06T00:57:25+00:00,1.9393999576569,2,versionA_stim.csv,JOLVersion.csv,JOL,JOL1,BASKET,OVEN,Study2,M,71,63,Test,User,-,,Recall,Recall2,1769,eggs,25,1264,1629,0,0,,,1
w10132740_fmm,w9be1suud5,"Mediated JOLs",1,177,2023-09-06T00:57:27+00:00,1.6727669239044,2,versionA_stim.csv,JOLVersion.csv,JOL,JOL1,BLAZE,FIRE,Study2,F,81,66,Test,User,-,,Recall,Recall2,1517,fire,100,887,1275,1,1,,,1
w10132740_fmm,w9be1suud5,"Mediated JOLs",1,178,2023-09-06T00:57:32+00:00,5.4942281246185,2,versionA_stim.csv,JOLVersion.csv,JOL,JOL1,DRINK,SOAP,Study2,M,67,104,Test,User,-,,Recall,Recall2,5272,water,22.222222222222,4042,5243,0,0,,,1
w10132740_fmm,w9be1suud5,"Mediated JOLs",1,179,2023-09-06T00:57:34+00:00,1.9644448757172,2,versionA_stim.csv,JOLVersion.csv,JOL,JOL1,MIRROR,CHILDREN,Study2,U,104,79,Test,User,-,,Recall,Recall2,1801,child,76.923076923077,1097,1644,0,1,,,1
w10132740_fmm,w9be1suud5,"Mediated JOLs",1,180,2023-09-06T00:57:38+00:00,3.4386010169983,2,versionA_stim.csv,JOLVersion.csv,JOL,JOL1,STRONG,ACCIDENT,Study2,U,94,67,Test,User,-,,Recall,Recall2,3268,muscle,28.571428571429,1237,3110,0,0,,,1
w10132740_fmm,w9be1suud5,"Mediated JOLs",1,181,2023-09-06T00:58:19+00:00,41.343683004379,2,versionA_stim.csv,JOLVersion.csv,JOL,JOL1,BOTH,OUNCE,Study2,U,102,69,Test,User,-,,Recall,Recall2,40593,double,54.545454545455,10461,40446,0,0,,,1
w10132740_fmm,w9be1suud5,"Mediated JOLs",1,182,2023-09-06T00:58:22+00:00,2.3366479873657,2,versionA_stim.csv,JOLVersion.csv,JOL,JOL1,SEED,RAKE,Study2,M,69,62,Test,User,-,,Recall,Recall2,2121,plant,22.222222222222,1447,2004,0,0,,,1
w10132740_fmm,w9be1suud5,"Mediated JOLs",1,183,2023-09-06T00:58:26+00:00,3.9566740989685,2,versionA_stim.csv,JOLVersion.csv,JOL,JOL1,SICK,HIDE,Study2,U,100,100,Test,User,-,,Recall,Recall2,3803,cold,25,3329,3687,0,0,,,1
w10132740_fmm,w9be1suud5,"Mediated JOLs",1,184,2023-09-06T00:58:28+00:00,2.2787339687347,2,versionA_stim.csv,JOLVersion.csv,JOL,JOL1,CAVE,TRAP,Study2,M,70,76,Test,User,-,,Recall,Recall2,2116,hole,0,1596,2048,0,0,,,1
w10132740_fmm,w9be1suud5,"Mediated JOLs",1,185,2023-09-06T00:58:30+00:00,1.9577460289001,2,versionA_stim.csv,JOLVersion.csv,JOL,JOL1,ATTIRE,CLOTHES,Study2,F,79,77,Test,User,-,,Recall,Recall2,1791,clothes,100,851,1679,1,1,,,1
w10132740_fmm,w9be1suud5,"Mediated JOLs",1,186,2023-09-06T00:58:42+00:00,12.501250982285,2,versionA_stim.csv,JOLVersion.csv,JOL,JOL1,BRIDGE,WATER,Study2,F,90,85,Test,User,-,,Recall,Recall2,12268,canyon,18.181818181818,9178,11941,0,0,,,1
w10132740_fmm,w9be1suud5,"Mediated JOLs",1,187,2023-09-06T00:58:45+00:00,3.2245500087738,2,versionA_stim.csv,JOLVersion.csv,JOL,JOL1,LEAGUE,BASEBALL,Study2,F,84,105,Test,User,-,,Recall,Recall2,3060,baseball,100,1581,2657,1,1,,,1
w10132740_fmm,w9be1suud5,"Mediated JOLs",1,188,2023-09-06T00:58:51+00:00,5.0242538452148,2,versionA_stim.csv,JOLVersion.csv,JOL,JOL1,MUSCLE,RAZOR,Study2,M,75,84,Test,User,-,,Recall,Recall2,4871,strong,36.363636363636,2319,4602,0,0,,,1
w10132740_fmm,w9be1suud5,"Mediated JOLs",1,189,2023-09-06T00:58:53+00:00,2.7291610240936,2,versionA_stim.csv,JOLVersion.csv,JOL,JOL1,SMELL,EYES,Study2,M,65,73,Test,User,-,,Recall,Recall2,2565,incencse,33.333333333333,1053,2443,0,0,,,1
w10132740_fmm,w9be1suud5,"Mediated JOLs",1,190,2023-09-06T00:58:55+00:00,2.1967160701752,2,versionA_stim.csv,JOLVersion.csv,JOL,JOL1,SUGAR,RIDDLE,Study2,U,95,87,Test,User,-,,Recall,Recall2,2037,spice,36.363636363636,1369,1905,0,0,,,1
w10132740_fmm,w9be1suud5,"Mediated JOLs",1,191,2023-09-06T00:58:57+00:00,1.5398919582367,2,versionA_stim.csv,JOLVersion.csv,JOL,JOL1,CHOP,CUT,Study2,F,77,74,Test,User,-,,Recall,Recall2,1382,cut,100,1033,1301,1,1,,,1
w10132740_fmm,w9be1suud5,"Mediated JOLs",1,192,2023-09-06T00:59:00+00:00,2.7525780200958,2,versionA_stim.csv,JOLVersion.csv,JOL,JOL1,LAWYER,NURSE,Study2,M,66,80,Test,User,-,,Recall,Recall2,2594,nurse,100,1867,2454,1,1,,,1
w10132740_fmm,w9be1suud5,"Mediated JOLs",1,193,2023-09-06T00:59:04+00:00,3.9405949115753,2,versionA_stim.csv,JOLVersion.csv,JOL,JOL1,THIGH,GRILL,Study2,M,72,78,Test,User,-,,Recall,Recall2,3785,leg,25,3480,3697,0,0,,,1
w10132740_fmm,w9be1suud5,"Mediated JOLs",1,194,2023-09-06T00:59:09+00:00,5.488254070282,2,versionA_stim.csv,JOLVersion.csv,JOL,JOL1,ARTERY,BRONZE,Study2,U,103,91,Test,User,-,,Recall,Recall2,5272,drawing,30.769230769231,2964,5161,0,0,,,1
w10132740_fmm,w9be1suud5,"Mediated JOLs",1,195,2023-09-06T00:59:11+00:00,1.8893051147461,2,versionA_stim.csv,JOLVersion.csv,JOL,JOL1,STOP,SCHOOL,Study2,M,62,86,Test,User,-,,Recall,Recall2,1725,sign,20,769,1534,0,0,,,1
w10132740_fmm,w9be1suud5,"Mediated JOLs",1,196,2023-09-06T00:59:15+00:00,4.2169189453125,2,versionA_stim.csv,JOLVersion.csv,JOL,JOL1,PUSH,CLUTTER,Study2,U,96,98,Test,User,-,,Recall,Recall2,4059,shove,16.666666666667,3406,3890,0,0,,,1
w10132740_fmm,w9be1suud5,"Mediated JOLs",1,197,2023-09-06T00:59:22+00:00,7.1188149452209,2,versionA_stim.csv,JOLVersion.csv,JOL,JOL1,LEASE,TOIL,Study2,U,101,65,Test,User,-,,Recall,Recall2,6898,loan,25,4090,6689,0,0,,,1
w10132740_fmm,w9be1suud5,"Mediated JOLs",1,198,2023-09-06T00:59:36+00:00,13.46312212944,2,versionA_stim.csv,JOLVersion.csv,JOL,JOL1,ISLAND,REALITY,Study2,M,64,71,Test,User,-,,Recall,Recall2,13240,sea,40,9934,13063,0,0,,,1
w10132740_fmm,w9be1suud5,"Mediated JOLs",1,199,2023-09-06T00:59:44+00:00,8.32199883461,2,versionA_stim.csv,JOLVersion.csv,JOL,JOL1,COLLAR,PANTS,Study2,M,63,83,Test,User,-,,Recall,Recall2,8095,shirt,20,5272,7650,0,0,,,1
w10132740_fmm,w9be1suud5,"Mediated JOLs",1,200,2023-09-06T00:59:48+00:00,3.6565940380096,2,versionA_stim.csv,JOLVersion.csv,JOL,JOL1,WASP,BUG,Study2,F,89,75,Test,User,-,,Recall,Recall2,3497,sting,25,2487,3311,0,0,,,1
w10132740_fmm,w9be1suud5,"Mediated JOLs",1,201,2023-09-06T00:59:53+00:00,4.7313981056213,2,versionA_stim.csv,JOLVersion.csv,JOL,JOL1,SNOW,SUMMER,Study2,M,61,88,Test,User,-,,Recall,Recall2,4571,summer,100,3897,4506,1,1,,,1
w10132740_fmm,w9be1suud5,"Mediated JOLs",1,202,2023-09-06T01:00:00+00:00,7.0370559692383,2,versionA_stim.csv,JOLVersion.csv,JOL,JOL1,KNOB,WINDOW,Study2,M,74,106,Test,User,-,,Recall,Recall2,6818,door,40,6326,6686,0,0,,,1
w10132740_fmm,w9be1suud5,"Mediated JOLs",1,203,2023-09-06T01:00:02+00:00,2.3312530517578,2,versionA_stim.csv,JOLVersion.csv,JOL,JOL1,HERD,COW,Study2,F,88,95,Test,User,-,,Recall,Recall2,2120,cow,100,1282,2029,1,1,,,1
w10132740_fmm,w9be1suud5,"Mediated JOLs",1,204,2023-09-06T01:00:04+00:00,2.5670387744904,2,versionA_stim.csv,JOLVersion.csv,JOL,JOL1,KING,VASE,Study2,U,91,102,Test,User,-,,Recall,Recall2,2329,queen,22.222222222222,1657,2104,0,0,,,1
w10132740_fmm,w9be1suud5,"Mediated JOLs",1,205,2023-09-06T01:00:07+00:00,2.0847170352936,2,versionA_stim.csv,JOLVersion.csv,JOL,JOL1,BENCH,HORN,Study2,U,98,64,Test,User,-,,Recall,Recall2,1845,seat,0,1271,1716,0,0,,,1
w10132740_fmm,w9be1suud5,"Mediated JOLs",1,206,2023-09-06T01:00:11+00:00,4.8438620567322,2,versionA_stim.csv,JOLVersion.csv,JOL,JOL1,PEAK,VALLEY,Study2,M,73,97,Test,User,-,,Recall,Recall2,4685,high,0,1972,4429,0,0,,,1
w10132740_fmm,w9be1suud5,"Mediated JOLs",1,207,2023-09-06T01:00:16+00:00,4.8117430210114,2,versionA_stim.csv,JOLVersion.csv,JOL,JOL1,ART,WOLF,Study2,U,93,99,Test,User,-,,Recall,Recall2,4651,show,25,3044,4425,0,0,,,1
w10132740_fmm,w9be1suud5,"Mediated JOLs",1,208,2023-09-06T01:00:19+00:00,3.0267119407654,2,versionA_stim.csv,JOLVersion.csv,JOL,JOL1,HORNET,STING,Study2,F,85,93,Test,User,-,,Recall,Recall2,2866,sting,100,1354,2731,1,1,,,1
w10132740_fmm,w9be1suud5,"Mediated JOLs",1,209,2023-09-06T01:00:22+00:00,2.6306719779968,2,versionA_stim.csv,JOLVersion.csv,JOL,JOL1,HAPPY,CAR,Study2,U,92,89,Test,User,-,,Recall,Recall2,2462,smile,0,1069,2366,0,0,,,1
w10132740_fmm,w9be1suud5,"Mediated JOLs",1,210,2023-09-06T01:00:23+00:00,1.497230052948,2,versionA_stim.csv,JOLVersion.csv,JOL,JOL1,DOCUMENT,PAPER,Study2,F,82,96,Test,User,-,,Recall,Recall2,1343,paper,100,927,1324,1,1,,,1
w10132740_fmm,w9be1suud5,"Mediated JOLs",1,211,2023-09-06T01:00:25+00:00,2.1071500778198,2,versionA_stim.csv,JOLVersion.csv,JOL,JOL1,FEATHER,HEAVY,Study2,M,68,92,Test,User,-,,Recall,Recall2,1705,bird,0,1140,1586,0,0,,,1
w10132740_fmm,w9be1suud5,"Mediated JOLs",1,212,2023-09-06T01:00:28+00:00,2.0618090629578,2,versionA_stim.csv,JOLVersion.csv,JOL,JOL1,FEUD,FIGHT,Study2,F,86,72,Test,User,-,,Recall,Recall2,1762,family,36.363636363636,930,1668,0,0,,,1
w10132740_fmm,w9be1suud5,"Mediated JOLs",1,213,2023-09-06T01:00:29+00:00,1.569412946701,2,versionA_stim.csv,JOLVersion.csv,JOL,JOL1,DEATH,BUSINESS,Study2,U,99,103,Test,User,-,,Recall,Recall2,1345,die,36.363636363636,1016,1229,0,0,,,1
w10132740_fmm,w9be1suud5,"Mediated JOLs",1,214,2023-09-06T01:00:31+00:00,1.9336848258972,2,versionA_stim.csv,JOLVersion.csv,JOL,JOL1,CHISEL,HAMMER,Study2,F,78,81,Test,User,-,,Recall,Recall2,1785,art,44.444444444444,1343,1678,0,0,,,1
w10132740_fmm,w9be1suud5,"Mediated JOLs",1,215,2023-09-06T01:00:33+00:00,1.8305041790009,2,versionA_stim.csv,JOLVersion.csv,JOL,JOL1,,,,,,0,Instruct,User,-,"You have completed this section. Please press Enter.",,Instruct7,1573,,,-1,-1,,,,,1
w10132740_fmm,w9be1suud5,"Mediated JOLs",1,216,2023-09-06T01:00:35+00:00,2.0063128471375,2,versionA_stim.csv,JOLVersion.csv,JOL,JOL1,,,,,,0,Instruct,User,-,"The following screen will ask you a few questions abour your experience today. You must complete these questions to receive credit.",,Instruct8,1758,,,-1,-1,,,,,1
