Username,ID,ExperimentName,Session,Trial,Date,TimeDif,"Condition Number","Stimuli File","Order File","Condition Description","Condition Notes",Stimuli*Cue,Stimuli*Answer,Stimuli*Shuffle,"Stimuli*Stimuli Notes",Stimuli*Value,Procedure*Item,"Procedure*Trial Type","Procedure*Max Time","Procedure*Min Time",Procedure*Text,"Procedure*Procedure Notes",Procedure*Shuffle,Response*RT,Response*Response,Response*Accuracy,Response*RTfirst,Response*RTlast,Response*strictAcc,Response*lenientAcc,Response*focus,Response*JOL,Response*Focus
67acd5d94f0cda8de4e1a1d4,ul455tkfff,"Mediated JOLs",1,1,2025-03-25T02:24:29+00:00,11.300355195999,1,JAM_stim.csv,JAM_proc.csv,JAM,JAM,,,,,,0,Instruct,-,5,"In this section, you will be presented with a series of word pairs. We are interested in how related you perceive the words in each pair to be.",Initial_Instruct,Instruct1,10938,,,-1,-1,,,,,1
67acd5d94f0cda8de4e1a1d4,ul455tkfff,"Mediated JOLs",1,2,2025-03-25T02:24:48+00:00,19.210139989853,1,JAM_stim.csv,JAM_proc.csv,JAM,JAM,,,,,,0,Instruct,-,5,"Specifically, you will be asked to rate how often the words in each pair are used together. Assume 100 college students from around the nation gave responses to each CUE (first) word. How many of these 100 students do you think would have given the RESPONSE (second) word?",,Instruct13,18693,,,-1,-1,,,,,1
67acd5d94f0cda8de4e1a1d4,ul455tkfff,"Mediated JOLs",1,3,2025-03-25T02:24:58+00:00,10.289024829865,1,JAM_stim.csv,JAM_proc.csv,JAM,JAM,,,,,,0,Instruct,-,5,"For example, if you are given the pair CAT - DOG, a rating of 0 indicates that DOG is not a commonly given response to the word CAT, while a score of 100 indicates that DOG would be a common response.",,Instruct14,9872,,,-1,-1,,,,,1
67acd5d94f0cda8de4e1a1d4,ul455tkfff,"Mediated JOLs",1,4,2025-03-25T02:25:32+00:00,33.860793113708,1,JAM_stim.csv,JAM_proc.csv,JAM,JAM,,,,,,0,Instruct,-,5,"When making your ratings, it is criticial that you use the full range of the scale. You will be disqualified for only giving ratings of 0 or 100! After making your rating, you will press Enter to advance to the next pair.",,Instruct15,32784,,,-1,-1,,,,,0.71
67acd5d94f0cda8de4e1a1d4,ul455tkfff,"Mediated JOLs",1,5,2025-03-25T02:25:42+00:00,10.383256912231,1,JAM_stim.csv,JAM_proc.csv,JAM,JAM,,,,,,0,Instruct,User,-,"Before starting the study, you will complete a short practice session to get familiar with the judgment task. Press Enter when you are ready to begin.",,Instruct16,9976,,,-1,-1,,,,,1
67acd5d94f0cda8de4e1a1d4,ul455tkfff,"Mediated JOLs",1,6,2025-03-25T02:25:58+00:00,16.029370069504,1,JAM_stim.csv,JAM_proc.csv,JAM,JAM,SPACE,JAM,Practice,Practice,5,2,JAM,User,-,"How many inidividuals out of 100 would provide the second word in this pair as their immediate response to the first word? |Type your response on a scale from 0-100 and then press Enter.",Study/JOL,Practice,15262,,,12307,12586,,,,50,1
67acd5d94f0cda8de4e1a1d4,ul455tkfff,"Mediated JOLs",1,7,2025-03-25T02:26:05+00:00,6.4631590843201,1,JAM_stim.csv,JAM_proc.csv,JAM,JAM,TREES,GREEN,Practice,Practice,1,5,JAM,User,-,"How many inidividuals out of 100 would provide the second word in this pair as their immediate response to the first word? |Type your response on a scale from 0-100 and then press Enter.",Study/JOL,Practice,5994,,,3737,4522,,,,100,1
67acd5d94f0cda8de4e1a1d4,ul455tkfff,"Mediated JOLs",1,8,2025-03-25T02:26:25+00:00,20.284693002701,1,JAM_stim.csv,JAM_proc.csv,JAM,JAM,PITCHER,CATCHER,Practice,Practice,2,4,JAM,User,-,"How many inidividuals out of 100 would provide the second word in this pair as their immediate response to the first word? |Type your response on a scale from 0-100 and then press Enter.",Study/JOL,Practice,19815,,,17267,17522,,,,90,0.729
67acd5d94f0cda8de4e1a1d4,ul455tkfff,"Mediated JOLs",1,9,2025-03-25T02:26:38+00:00,12.841902971268,1,JAM_stim.csv,JAM_proc.csv,JAM,JAM,SCARE,FRIGHT,Practice,Practice,4,3,JAM,User,-,"How many inidividuals out of 100 would provide the second word in this pair as their immediate response to the first word? |Type your response on a scale from 0-100 and then press Enter.",Study/JOL,Practice,12426,,,10989,11238,,,,80,0.857
67acd5d94f0cda8de4e1a1d4,ul455tkfff,"Mediated JOLs",1,10,2025-03-25T02:26:49+00:00,11.194115877151,1,JAM_stim.csv,JAM_proc.csv,JAM,JAM,PEANUT,BUTTER,Practice,Practice,3,6,JAM,User,-,"How many inidividuals out of 100 would provide the second word in this pair as their immediate response to the first word? |Type your response on a scale from 0-100 and then press Enter.",Study/JOL,Practice,10773,,,9522,9697,,,,95,0.846
67acd5d94f0cda8de4e1a1d4,ul455tkfff,"Mediated JOLs",1,11,2025-03-25T02:26:52+00:00,2.8430049419403,1,JAM_stim.csv,JAM_proc.csv,JAM,JAM,,,,,,0,Instruct,User,-,"You will now begin the study. Press Enter when you are ready to begin.",,Instruct_Full_task,2259,,,-1,-1,,,,,1
67acd5d94f0cda8de4e1a1d4,ul455tkfff,"Mediated JOLs",1,12,2025-03-25T02:27:03+00:00,11.275068998337,1,JAM_stim.csv,JAM_proc.csv,JAM,JAM,SICK,HIDE,Study1,U,100,94,JAM,User,-,"How many inidividuals out of 100 would provide the second word in this pair as their immediate response to the first word? |Type your response on a scale from 0-100 and then press Enter.",Study/JOL,JAM_Rating,10649,,,8656,8852,,,,10,0.895
67acd5d94f0cda8de4e1a1d4,ul455tkfff,"Mediated JOLs",1,13,2025-03-25T02:27:13+00:00,10.134115219116,1,JAM_stim.csv,JAM_proc.csv,JAM,JAM,MIRROR,MAROON,Study1,U,36,21,JAM,User,-,"How many inidividuals out of 100 would provide the second word in this pair as their immediate response to the first word? |Type your response on a scale from 0-100 and then press Enter.",Study/JOL,JAM_Rating,9631,,,8483,8483,,,,5,0.839
67acd5d94f0cda8de4e1a1d4,ul455tkfff,"Mediated JOLs",1,14,2025-03-25T02:27:23+00:00,9.7790379524231,1,JAM_stim.csv,JAM_proc.csv,JAM,JAM,ART,WOLF,Study1,U,93,51,JAM,User,-,"How many inidividuals out of 100 would provide the second word in this pair as their immediate response to the first word? |Type your response on a scale from 0-100 and then press Enter.",Study/JOL,JAM_Rating,9372,,,8196,8196,,,,2,0.871
67acd5d94f0cda8de4e1a1d4,ul455tkfff,"Mediated JOLs",1,15,2025-03-25T02:27:34+00:00,10.415979862213,1,JAM_stim.csv,JAM_proc.csv,JAM,JAM,BEACH,SQUARE,Study1,M,7,58,JAM,User,-,"How many inidividuals out of 100 would provide the second word in this pair as their immediate response to the first word? |Type your response on a scale from 0-100 and then press Enter.",Study/JOL,JAM_Rating,10018,,,8095,8095,,,,1,0.865
67acd5d94f0cda8de4e1a1d4,ul455tkfff,"Mediated JOLs",1,16,2025-03-25T02:27:45+00:00,11.160236120224,1,JAM_stim.csv,JAM_proc.csv,JAM,JAM,CEILING,RUG,Study1,M,15,73,JAM,User,-,"How many inidividuals out of 100 would provide the second word in this pair as their immediate response to the first word? |Type your response on a scale from 0-100 and then press Enter.",Study/JOL,JAM_Rating,10466,,,9150,9150,,,,3,0.838
67acd5d94f0cda8de4e1a1d4,ul455tkfff,"Mediated JOLs",1,17,2025-03-25T02:28:07+00:00,22.118923902512,1,JAM_stim.csv,JAM_proc.csv,JAM,JAM,OVEN,WEAVE,Study1,M,71,90,JAM,User,-,"How many inidividuals out of 100 would provide the second word in this pair as their immediate response to the first word? |Type your response on a scale from 0-100 and then press Enter.",Study/JOL,JAM_Rating,21646,,,20132,20132,,,,1,0.889
67acd5d94f0cda8de4e1a1d4,ul455tkfff,"Mediated JOLs",1,18,2025-03-25T02:28:18+00:00,10.904255151749,1,JAM_stim.csv,JAM_proc.csv,JAM,JAM,VEHICLE,CHARM,Study1,U,40,11,JAM,User,-,"How many inidividuals out of 100 would provide the second word in this pair as their immediate response to the first word? |Type your response on a scale from 0-100 and then press Enter.",Study/JOL,JAM_Rating,10444,,,10036,10036,,,,1,0.865
67acd5d94f0cda8de4e1a1d4,ul455tkfff,"Mediated JOLs",1,19,2025-03-25T02:28:27+00:00,8.7302129268646,1,JAM_stim.csv,JAM_proc.csv,JAM,JAM,CHERRY,RED,Study1,F,125,26,JAM,User,-,"How many inidividuals out of 100 would provide the second word in this pair as their immediate response to the first word? |Type your response on a scale from 0-100 and then press Enter.",Study/JOL,JAM_Rating,8272,,,7641,7916,,,,90,0.862
67acd5d94f0cda8de4e1a1d4,ul455tkfff,"Mediated JOLs",1,20,2025-03-25T02:28:34+00:00,7.7916040420532,1,JAM_stim.csv,JAM_proc.csv,JAM,JAM,PUSH,CLUTTER,Study1,U,96,42,JAM,User,-,"How many inidividuals out of 100 would provide the second word in this pair as their immediate response to the first word? |Type your response on a scale from 0-100 and then press Enter.",Study/JOL,JAM_Rating,7183,,,6999,6999,,,,1,0.792
67acd5d94f0cda8de4e1a1d4,ul455tkfff,"Mediated JOLs",1,21,2025-03-25T02:29:01+00:00,26.465908050537,1,JAM_stim.csv,JAM_proc.csv,JAM,JAM,PANTS,DOG,Study1,M,63,55,JAM,User,-,"How many inidividuals out of 100 would provide the second word in this pair as their immediate response to the first word? |Type your response on a scale from 0-100 and then press Enter.",Study/JOL,JAM_Rating,26089,,,6892,6892,,,,1,0.704
67acd5d94f0cda8de4e1a1d4,ul455tkfff,"Mediated JOLs",1,22,2025-03-25T02:29:09+00:00,8.0560078620911,1,JAM_stim.csv,JAM_proc.csv,JAM,JAM,ARTERY,BRONZE,Study1,U,103,72,JAM,User,-,"How many inidividuals out of 100 would provide the second word in this pair as their immediate response to the first word? |Type your response on a scale from 0-100 and then press Enter.",Study/JOL,JAM_Rating,7595,,,7386,7386,,,,1,0.846
67acd5d94f0cda8de4e1a1d4,ul455tkfff,"Mediated JOLs",1,23,2025-03-25T02:29:17+00:00,8.5554339885712,1,JAM_stim.csv,JAM_proc.csv,JAM,JAM,MEAT,KEYS,Study1,U,41,36,JAM,User,-,"How many inidividuals out of 100 would provide the second word in this pair as their immediate response to the first word? |Type your response on a scale from 0-100 and then press Enter.",Study/JOL,JAM_Rating,8036,,,7817,7818,,,,1,0.852
67acd5d94f0cda8de4e1a1d4,ul455tkfff,"Mediated JOLs",1,24,2025-03-25T02:29:28+00:00,10.514846086502,1,JAM_stim.csv,JAM_proc.csv,JAM,JAM,MAZE,PHONE,Study1,U,42,75,JAM,User,-,"How many inidividuals out of 100 would provide the second word in this pair as their immediate response to the first word? |Type your response on a scale from 0-100 and then press Enter.",Study/JOL,JAM_Rating,10112,,,9492,9492,,,,2,0.892
67acd5d94f0cda8de4e1a1d4,ul455tkfff,"Mediated JOLs",1,25,2025-03-25T02:29:39+00:00,10.813060998917,1,JAM_stim.csv,JAM_proc.csv,JAM,JAM,CIRCLE,FUN,Study1,M,13,13,JAM,User,-,"How many inidividuals out of 100 would provide the second word in this pair as their immediate response to the first word? |Type your response on a scale from 0-100 and then press Enter.",Study/JOL,JAM_Rating,9978,,,7942,7942,,,,2,0.861
67acd5d94f0cda8de4e1a1d4,ul455tkfff,"Mediated JOLs",1,26,2025-03-25T02:29:48+00:00,9.4178528785706,1,JAM_stim.csv,JAM_proc.csv,JAM,JAM,WORD,SENTENCE,Study1,F,112,18,JAM,User,-,"How many inidividuals out of 100 would provide the second word in this pair as their immediate response to the first word? |Type your response on a scale from 0-100 and then press Enter.",Study/JOL,JAM_Rating,8847,,,8337,8572,,,,50,0.839
67acd5d94f0cda8de4e1a1d4,ul455tkfff,"Mediated JOLs",1,27,2025-03-25T02:29:57+00:00,8.4628140926361,1,JAM_stim.csv,JAM_proc.csv,JAM,JAM,TRAP,MAN,Study1,M,70,46,JAM,User,-,"How many inidividuals out of 100 would provide the second word in this pair as their immediate response to the first word? |Type your response on a scale from 0-100 and then press Enter.",Study/JOL,JAM_Rating,7879,,,7680,7681,,,,5,0.846
67acd5d94f0cda8de4e1a1d4,ul455tkfff,"Mediated JOLs",1,28,2025-03-25T02:30:04+00:00,7.7500040531158,1,JAM_stim.csv,JAM_proc.csv,JAM,JAM,GRILL,LEG,Study1,M,72,92,JAM,User,-,"How many inidividuals out of 100 would provide the second word in this pair as their immediate response to the first word? |Type your response on a scale from 0-100 and then press Enter.",Study/JOL,JAM_Rating,7364,,,7175,7175,,,,1,0.833
67acd5d94f0cda8de4e1a1d4,ul455tkfff,"Mediated JOLs",1,29,2025-03-25T02:30:13+00:00,8.3086578845978,1,JAM_stim.csv,JAM_proc.csv,JAM,JAM,STRONG,ACCIDENT,Study1,U,94,66,JAM,User,-,"How many inidividuals out of 100 would provide the second word in this pair as their immediate response to the first word? |Type your response on a scale from 0-100 and then press Enter.",Study/JOL,JAM_Rating,7529,,,7294,7294,,,,3,0.84
67acd5d94f0cda8de4e1a1d4,ul455tkfff,"Mediated JOLs",1,30,2025-03-25T02:30:21+00:00,8.4365410804749,1,JAM_stim.csv,JAM_proc.csv,JAM,JAM,GIVE,STEAK,Study1,U,38,93,JAM,User,-,"How many inidividuals out of 100 would provide the second word in this pair as their immediate response to the first word? |Type your response on a scale from 0-100 and then press Enter.",Study/JOL,JAM_Rating,7991,,,7796,7796,,,,1,0.846
67acd5d94f0cda8de4e1a1d4,ul455tkfff,"Mediated JOLs",1,31,2025-03-25T02:30:31+00:00,9.5176770687103,1,JAM_stim.csv,JAM_proc.csv,JAM,JAM,CRY,BEER,Study1,M,16,43,JAM,User,-,"How many inidividuals out of 100 would provide the second word in this pair as their immediate response to the first word? |Type your response on a scale from 0-100 and then press Enter.",Study/JOL,JAM_Rating,9113,,,8869,8869,,,,1,0.882
67acd5d94f0cda8de4e1a1d4,ul455tkfff,"Mediated JOLs",1,32,2025-03-25T02:30:39+00:00,8.6984958648682,1,JAM_stim.csv,JAM_proc.csv,JAM,JAM,CASH,STUDY,Study1,U,105,80,JAM,User,-,"How many inidividuals out of 100 would provide the second word in this pair as their immediate response to the first word? |Type your response on a scale from 0-100 and then press Enter.",Study/JOL,JAM_Rating,8030,,,7789,7789,,,,2,0.846
67acd5d94f0cda8de4e1a1d4,ul455tkfff,"Mediated JOLs",1,33,2025-03-25T02:30:48+00:00,8.3093209266663,1,JAM_stim.csv,JAM_proc.csv,JAM,JAM,LISTEN,FICTION,Study1,U,44,96,JAM,User,-,"How many inidividuals out of 100 would provide the second word in this pair as their immediate response to the first word? |Type your response on a scale from 0-100 and then press Enter.",Study/JOL,JAM_Rating,7924,,,7705,7705,,,,2,0.815
67acd5d94f0cda8de4e1a1d4,ul455tkfff,"Mediated JOLs",1,34,2025-03-25T02:30:56+00:00,7.9736502170563,1,JAM_stim.csv,JAM_proc.csv,JAM,JAM,CHOP,CUT,Study1,F,122,50,JAM,User,-,"How many inidividuals out of 100 would provide the second word in this pair as their immediate response to the first word? |Type your response on a scale from 0-100 and then press Enter.",Study/JOL,JAM_Rating,7331,,,6836,7062,,,,80,0.826
67acd5d94f0cda8de4e1a1d4,ul455tkfff,"Mediated JOLs",1,35,2025-03-25T02:31:03+00:00,7.553386926651,1,JAM_stim.csv,JAM_proc.csv,JAM,JAM,FEUD,FIGHT,Study1,F,131,16,JAM,User,-,"How many inidividuals out of 100 would provide the second word in this pair as their immediate response to the first word? |Type your response on a scale from 0-100 and then press Enter.",Study/JOL,JAM_Rating,7154,,,6664,6933,,,,70,0.875
67acd5d94f0cda8de4e1a1d4,ul455tkfff,"Mediated JOLs",1,36,2025-03-25T02:31:11+00:00,7.7490699291229,1,JAM_stim.csv,JAM_proc.csv,JAM,JAM,HERD,COW,Study1,F,133,74,JAM,User,-,"How many inidividuals out of 100 would provide the second word in this pair as their immediate response to the first word? |Type your response on a scale from 0-100 and then press Enter.",Study/JOL,JAM_Rating,7347,,,6817,7071,,,,60,0.875
67acd5d94f0cda8de4e1a1d4,ul455tkfff,"Mediated JOLs",1,37,2025-03-25T02:31:21+00:00,10.53070807457,1,JAM_stim.csv,JAM_proc.csv,JAM,JAM,RAZOR,ARM,Study1,M,75,32,JAM,User,-,"How many inidividuals out of 100 would provide the second word in this pair as their immediate response to the first word? |Type your response on a scale from 0-100 and then press Enter.",Study/JOL,JAM_Rating,10013,,,9739,9739,,,,5,0.897
67acd5d94f0cda8de4e1a1d4,ul455tkfff,"Mediated JOLs",1,38,2025-03-25T02:31:34+00:00,12.499131917953,1,JAM_stim.csv,JAM_proc.csv,JAM,JAM,WEDDING,HAND,Study1,M,17,61,JAM,User,-,"How many inidividuals out of 100 would provide the second word in this pair as their immediate response to the first word? |Type your response on a scale from 0-100 and then press Enter.",Study/JOL,JAM_Rating,12088,,,11873,11874,,,,5,0.765
67acd5d94f0cda8de4e1a1d4,ul455tkfff,"Mediated JOLs",1,39,2025-03-25T02:31:51+00:00,16.990560054779,1,JAM_stim.csv,JAM_proc.csv,JAM,JAM,SCALP,HEAD,Study1,F,108,87,JAM,User,-,"How many inidividuals out of 100 would provide the second word in this pair as their immediate response to the first word? |Type your response on a scale from 0-100 and then press Enter.",Study/JOL,JAM_Rating,16328,,,14652,16077,,,,80,0.656
67acd5d94f0cda8de4e1a1d4,ul455tkfff,"Mediated JOLs",1,40,2025-03-25T02:32:00+00:00,9.2124938964844,1,JAM_stim.csv,JAM_proc.csv,JAM,JAM,DAY,BLACK,Study1,M,18,35,JAM,User,-,"How many inidividuals out of 100 would provide the second word in this pair as their immediate response to the first word? |Type your response on a scale from 0-100 and then press Enter.",Study/JOL,JAM_Rating,8780,,,8560,8560,,,,2,0.815
67acd5d94f0cda8de4e1a1d4,ul455tkfff,"Mediated JOLs",1,41,2025-03-25T02:32:20+00:00,19.438397169113,1,JAM_stim.csv,JAM_proc.csv,JAM,JAM,CRACKLE,ELECTION,Study1,U,39,89,JAM,User,-,"How many inidividuals out of 100 would provide the second word in this pair as their immediate response to the first word? |Type your response on a scale from 0-100 and then press Enter.",Study/JOL,JAM_Rating,19037,,,18834,18834,,,,1,0.568
67acd5d94f0cda8de4e1a1d4,ul455tkfff,"Mediated JOLs",1,42,2025-03-25T02:32:59+00:00,39.554749011993,1,JAM_stim.csv,JAM_proc.csv,JAM,JAM,CHISEL,HAMMER,Study1,F,123,62,JAM,User,-,"How many inidividuals out of 100 would provide the second word in this pair as their immediate response to the first word? |Type your response on a scale from 0-100 and then press Enter.",Study/JOL,JAM_Rating,38803,,,38298,38573,,,,60,0.855
67acd5d94f0cda8de4e1a1d4,ul455tkfff,"Mediated JOLs",1,43,2025-03-25T02:33:08+00:00,8.6791639328003,1,JAM_stim.csv,JAM_proc.csv,JAM,JAM,WINDOW,HANDLE,Study1,M,74,15,JAM,User,-,"How many inidividuals out of 100 would provide the second word in this pair as their immediate response to the first word? |Type your response on a scale from 0-100 and then press Enter.",Study/JOL,JAM_Rating,8299,,,7898,8109,,,,10,0.808
67acd5d94f0cda8de4e1a1d4,ul455tkfff,"Mediated JOLs",1,44,2025-03-25T02:33:17+00:00,9.3835098743439,1,JAM_stim.csv,JAM_proc.csv,JAM,JAM,TUNA,FISH,Study1,F,120,71,JAM,User,-,"How many inidividuals out of 100 would provide the second word in this pair as their immediate response to the first word? |Type your response on a scale from 0-100 and then press Enter.",Study/JOL,JAM_Rating,8824,,,8401,8594,,,,95,0.821
67acd5d94f0cda8de4e1a1d4,ul455tkfff,"Mediated JOLs",1,45,2025-03-25T02:33:26+00:00,8.7689499855042,1,JAM_stim.csv,JAM_proc.csv,JAM,JAM,KEYS,ROD,Study1,U,45,31,JAM,User,-,"How many inidividuals out of 100 would provide the second word in this pair as their immediate response to the first word? |Type your response on a scale from 0-100 and then press Enter.",Study/JOL,JAM_Rating,8354,,,8130,8130,,,,2,0.815
67acd5d94f0cda8de4e1a1d4,ul455tkfff,"Mediated JOLs",1,46,2025-03-25T02:33:35+00:00,9.1815111637115,1,JAM_stim.csv,JAM_proc.csv,JAM,JAM,ORCHID,FLOWER,Study1,F,119,64,JAM,User,-,"How many inidividuals out of 100 would provide the second word in this pair as their immediate response to the first word? |Type your response on a scale from 0-100 and then press Enter.",Study/JOL,JAM_Rating,8786,,,8074,8440,,,,90,0.828
67acd5d94f0cda8de4e1a1d4,ul455tkfff,"Mediated JOLs",1,47,2025-03-25T02:33:44+00:00,8.520938873291,1,JAM_stim.csv,JAM_proc.csv,JAM,JAM,SWAN,BIRD,Study1,F,111,79,JAM,User,-,"How many inidividuals out of 100 would provide the second word in this pair as their immediate response to the first word? |Type your response on a scale from 0-100 and then press Enter.",Study/JOL,JAM_Rating,8173,,,7604,7888,,,,90,0.808
67acd5d94f0cda8de4e1a1d4,ul455tkfff,"Mediated JOLs",1,48,2025-03-25T02:33:52+00:00,8.7307531833649,1,JAM_stim.csv,JAM_proc.csv,JAM,JAM,HAPPY,CAR,Study1,U,92,25,JAM,User,-,"How many inidividuals out of 100 would provide the second word in this pair as their immediate response to the first word? |Type your response on a scale from 0-100 and then press Enter.",Study/JOL,JAM_Rating,8180,,,7961,7961,,,,1,0.792
67acd5d94f0cda8de4e1a1d4,ul455tkfff,"Mediated JOLs",1,49,2025-03-25T02:34:06+00:00,13.443420886993,1,JAM_stim.csv,JAM_proc.csv,JAM,JAM,ATTIRE,CLOTHES,Study1,F,124,22,JAM,User,-,"How many inidividuals out of 100 would provide the second word in this pair as their immediate response to the first word? |Type your response on a scale from 0-100 and then press Enter.",Study/JOL,JAM_Rating,13039,,,12643,12845,,,,75,0.688
67acd5d94f0cda8de4e1a1d4,ul455tkfff,"Mediated JOLs",1,50,2025-03-25T02:34:15+00:00,8.8071200847626,1,JAM_stim.csv,JAM_proc.csv,JAM,JAM,CREDIT,CARD,Study1,F,118,60,JAM,User,-,"How many inidividuals out of 100 would provide the second word in this pair as their immediate response to the first word? |Type your response on a scale from 0-100 and then press Enter.",Study/JOL,JAM_Rating,8414,,,8015,8210,,,,95,0.769
67acd5d94f0cda8de4e1a1d4,ul455tkfff,"Mediated JOLs",1,51,2025-03-25T02:34:23+00:00,8.5506329536438,1,JAM_stim.csv,JAM_proc.csv,JAM,JAM,FUZZY,BANG,Study1,U,50,38,JAM,User,-,"How many inidividuals out of 100 would provide the second word in this pair as their immediate response to the first word? |Type your response on a scale from 0-100 and then press Enter.",Study/JOL,JAM_Rating,8157,,,7954,7954,,,,1,0.75
67acd5d94f0cda8de4e1a1d4,ul455tkfff,"Mediated JOLs",1,52,2025-03-25T02:34:33+00:00,9.7987098693848,1,JAM_stim.csv,JAM_proc.csv,JAM,JAM,BLAZE,FIRE,Study1,F,126,47,JAM,User,-,"How many inidividuals out of 100 would provide the second word in this pair as their immediate response to the first word? |Type your response on a scale from 0-100 and then press Enter.",Study/JOL,JAM_Rating,9401,,,9041,9222,,,,85,0.875
67acd5d94f0cda8de4e1a1d4,ul455tkfff,"Mediated JOLs",1,53,2025-03-25T02:34:41+00:00,8.1098852157593,1,JAM_stim.csv,JAM_proc.csv,JAM,JAM,LION,FLAG,Study1,M,6,56,JAM,User,-,"How many inidividuals out of 100 would provide the second word in this pair as their immediate response to the first word? |Type your response on a scale from 0-100 and then press Enter.",Study/JOL,JAM_Rating,7743,,,7539,7539,,,,1,0.826
67acd5d94f0cda8de4e1a1d4,ul455tkfff,"Mediated JOLs",1,54,2025-03-25T02:34:54+00:00,13.308569908142,1,JAM_stim.csv,JAM_proc.csv,JAM,JAM,SUMMER,WHITE,Study1,M,61,81,JAM,User,-,"How many inidividuals out of 100 would provide the second word in this pair as their immediate response to the first word? |Type your response on a scale from 0-100 and then press Enter.",Study/JOL,JAM_Rating,13016,,,12819,12819,,,,5,0.667
67acd5d94f0cda8de4e1a1d4,ul455tkfff,"Mediated JOLs",1,55,2025-03-25T02:35:03+00:00,8.8078188896179,1,JAM_stim.csv,JAM_proc.csv,JAM,JAM,SOON,BELT,Study1,U,46,54,JAM,User,-,"How many inidividuals out of 100 would provide the second word in this pair as their immediate response to the first word? |Type your response on a scale from 0-100 and then press Enter.",Study/JOL,JAM_Rating,8406,,,8187,8187,,,,1,0.8
67acd5d94f0cda8de4e1a1d4,ul455tkfff,"Mediated JOLs",1,56,2025-03-25T02:35:12+00:00,8.5066781044006,1,JAM_stim.csv,JAM_proc.csv,JAM,JAM,LEAGUE,BASEBALL,Study1,F,129,19,JAM,User,-,"How many inidividuals out of 100 would provide the second word in this pair as their immediate response to the first word? |Type your response on a scale from 0-100 and then press Enter.",Study/JOL,JAM_Rating,8120,,,7635,7899,,,,90,0.821
67acd5d94f0cda8de4e1a1d4,ul455tkfff,"Mediated JOLs",1,57,2025-03-25T02:35:23+00:00,11.032121896744,1,JAM_stim.csv,JAM_proc.csv,JAM,JAM,HORSE,TIRE,Study1,M,14,8,JAM,User,-,"How many inidividuals out of 100 would provide the second word in this pair as their immediate response to the first word? |Type your response on a scale from 0-100 and then press Enter.",Study/JOL,JAM_Rating,10618,,,10435,10435,,,,1,0.857
67acd5d94f0cda8de4e1a1d4,ul455tkfff,"Mediated JOLs",1,58,2025-03-25T02:35:34+00:00,11.105694055557,1,JAM_stim.csv,JAM_proc.csv,JAM,JAM,TOOTH,COMB,Study1,M,19,86,JAM,User,-,"How many inidividuals out of 100 would provide the second word in this pair as their immediate response to the first word? |Type your response on a scale from 0-100 and then press Enter.",Study/JOL,JAM_Rating,10706,,,10347,10347,,,,2,0.861
67acd5d94f0cda8de4e1a1d4,ul455tkfff,"Mediated JOLs",1,59,2025-03-25T02:35:43+00:00,8.865268945694,1,JAM_stim.csv,JAM_proc.csv,JAM,JAM,SOAP,THIRST,Study1,M,67,34,JAM,User,-,"How many inidividuals out of 100 would provide the second word in this pair as their immediate response to the first word? |Type your response on a scale from 0-100 and then press Enter.",Study/JOL,JAM_Rating,8347,,,7645,7645,,,,1,0.808
67acd5d94f0cda8de4e1a1d4,ul455tkfff,"Mediated JOLs",1,60,2025-03-25T02:35:59+00:00,16.698987007141,1,JAM_stim.csv,JAM_proc.csv,JAM,JAM,HYGIENE,CLEAN,Study1,F,113,82,JAM,User,-,"How many inidividuals out of 100 would provide the second word in this pair as their immediate response to the first word? |Type your response on a scale from 0-100 and then press Enter.",Study/JOL,JAM_Rating,16328,,,15505,15813,,,,80,0.723
67acd5d94f0cda8de4e1a1d4,ul455tkfff,"Mediated JOLs",1,61,2025-03-25T02:36:10+00:00,10.721325159073,1,JAM_stim.csv,JAM_proc.csv,JAM,JAM,SCHOOL,SIGN,Study1,M,62,14,JAM,User,-,"How many inidividuals out of 100 would provide the second word in this pair as their immediate response to the first word? |Type your response on a scale from 0-100 and then press Enter.",Study/JOL,JAM_Rating,10354,,,10160,10160,,,,5,0.824
67acd5d94f0cda8de4e1a1d4,ul455tkfff,"Mediated JOLs",1,62,2025-03-25T02:36:19+00:00,8.8012878894806,1,JAM_stim.csv,JAM_proc.csv,JAM,JAM,SUGAR,RIDDLE,Study1,U,95,29,JAM,User,-,"How many inidividuals out of 100 would provide the second word in this pair as their immediate response to the first word? |Type your response on a scale from 0-100 and then press Enter.",Study/JOL,JAM_Rating,8099,,,7684,7684,,,,1,0.8
67acd5d94f0cda8de4e1a1d4,ul455tkfff,"Mediated JOLs",1,63,2025-03-25T02:36:27+00:00,7.9801161289215,1,JAM_stim.csv,JAM_proc.csv,JAM,JAM,TREE,PANCAKES,Study1,M,11,67,JAM,User,-,"How many inidividuals out of 100 would provide the second word in this pair as their immediate response to the first word? |Type your response on a scale from 0-100 and then press Enter.",Study/JOL,JAM_Rating,7579,,,7164,7164,,,,1,0.833
67acd5d94f0cda8de4e1a1d4,ul455tkfff,"Mediated JOLs",1,64,2025-03-25T02:36:41+00:00,14.129378795624,1,JAM_stim.csv,JAM_proc.csv,JAM,JAM,LEASE,TOIL,Study1,U,101,68,JAM,User,-,"How many inidividuals out of 100 would provide the second word in this pair as their immediate response to the first word? |Type your response on a scale from 0-100 and then press Enter.",Study/JOL,JAM_Rating,13697,,,13292,13292,,,,1,0.712
67acd5d94f0cda8de4e1a1d4,ul455tkfff,"Mediated JOLs",1,65,2025-03-25T02:36:49+00:00,8.3244760036469,1,JAM_stim.csv,JAM_proc.csv,JAM,JAM,MULE,DONKEY,Study1,F,109,39,JAM,User,-,"How many inidividuals out of 100 would provide the second word in this pair as their immediate response to the first word? |Type your response on a scale from 0-100 and then press Enter.",Study/JOL,JAM_Rating,7906,,,7401,7661,,,,80,0.84
67acd5d94f0cda8de4e1a1d4,ul455tkfff,"Mediated JOLs",1,66,2025-03-25T02:36:59+00:00,9.6644160747528,1,JAM_stim.csv,JAM_proc.csv,JAM,JAM,SIP,DRINK,Study1,F,117,17,JAM,User,-,"How many inidividuals out of 100 would provide the second word in this pair as their immediate response to the first word? |Type your response on a scale from 0-100 and then press Enter.",Study/JOL,JAM_Rating,9207,,,8827,9022,,,,85,0.821
67acd5d94f0cda8de4e1a1d4,ul455tkfff,"Mediated JOLs",1,67,2025-03-25T02:37:08+00:00,8.5708029270172,1,JAM_stim.csv,JAM_proc.csv,JAM,JAM,HORNET,STING,Study1,F,130,69,JAM,User,-,"How many inidividuals out of 100 would provide the second word in this pair as their immediate response to the first word? |Type your response on a scale from 0-100 and then press Enter.",Study/JOL,JAM_Rating,8132,,,7611,7881,,,,90,0.808
67acd5d94f0cda8de4e1a1d4,ul455tkfff,"Mediated JOLs",1,68,2025-03-25T02:37:17+00:00,9.5878632068634,1,JAM_stim.csv,JAM_proc.csv,JAM,JAM,SHELL,SHAKE,Study1,U,43,59,JAM,User,-,"How many inidividuals out of 100 would provide the second word in this pair as their immediate response to the first word? |Type your response on a scale from 0-100 and then press Enter.",Study/JOL,JAM_Rating,9256,,,8783,8783,,,,1,0.645
67acd5d94f0cda8de4e1a1d4,ul455tkfff,"Mediated JOLs",1,69,2025-03-25T02:37:25+00:00,8.1322159767151,1,JAM_stim.csv,JAM_proc.csv,JAM,JAM,KING,VASE,Study1,U,91,10,JAM,User,-,"How many inidividuals out of 100 would provide the second word in this pair as their immediate response to the first word? |Type your response on a scale from 0-100 and then press Enter.",Study/JOL,JAM_Rating,7723,,,7253,7253,,,,1,0.783
67acd5d94f0cda8de4e1a1d4,ul455tkfff,"Mediated JOLs",1,70,2025-03-25T02:37:34+00:00,8.4530758857727,1,JAM_stim.csv,JAM_proc.csv,JAM,JAM,BOTH,OUNCE,Study1,U,102,95,JAM,User,-,"How many inidividuals out of 100 would provide the second word in this pair as their immediate response to the first word? |Type your response on a scale from 0-100 and then press Enter.",Study/JOL,JAM_Rating,8105,,,7731,7731,,,,1,0.783
67acd5d94f0cda8de4e1a1d4,ul455tkfff,"Mediated JOLs",1,71,2025-03-25T02:37:58+00:00,24.195230007172,1,JAM_stim.csv,JAM_proc.csv,JAM,JAM,BRIDGE,WATER,Study1,F,135,23,JAM,User,-,"How many inidividuals out of 100 would provide the second word in this pair as their immediate response to the first word? |Type your response on a scale from 0-100 and then press Enter.",Study/JOL,JAM_Rating,23883,,,23406,23643,,,,80,0.524
67acd5d94f0cda8de4e1a1d4,ul455tkfff,"Mediated JOLs",1,72,2025-03-25T02:38:23+00:00,25.263350009918,1,JAM_stim.csv,JAM_proc.csv,JAM,JAM,DEATH,BUSINESS,Study1,U,99,20,JAM,User,-,"How many inidividuals out of 100 would provide the second word in this pair as their immediate response to the first word? |Type your response on a scale from 0-100 and then press Enter.",Study/JOL,JAM_Rating,24804,,,24311,24311,,,,1,0.714
67acd5d94f0cda8de4e1a1d4,ul455tkfff,"Mediated JOLs",1,73,2025-03-25T02:38:49+00:00,25.629106044769,1,JAM_stim.csv,JAM_proc.csv,JAM,JAM,HARD,BALL,Study1,M,20,24,JAM,User,-,"How many inidividuals out of 100 would provide the second word in this pair as their immediate response to the first word? |Type your response on a scale from 0-100 and then press Enter.",Study/JOL,JAM_Rating,25217,,,24788,25014,,,,60,0.553
67acd5d94f0cda8de4e1a1d4,ul455tkfff,"Mediated JOLs",1,74,2025-03-25T02:38:58+00:00,9.5188879966736,1,JAM_stim.csv,JAM_proc.csv,JAM,JAM,MULE,DONKEY,Study1,F,115,84,JAM,User,-,"How many inidividuals out of 100 would provide the second word in this pair as their immediate response to the first word? |Type your response on a scale from 0-100 and then press Enter.",Study/JOL,JAM_Rating,9074,,,8569,8834,,,,80,0.867
67acd5d94f0cda8de4e1a1d4,ul455tkfff,"Mediated JOLs",1,75,2025-03-25T02:39:21+00:00,22.875357866287,1,JAM_stim.csv,JAM_proc.csv,JAM,JAM,VALLEY,TOP,Study1,M,73,88,JAM,User,-,"How many inidividuals out of 100 would provide the second word in this pair as their immediate response to the first word? |Type your response on a scale from 0-100 and then press Enter.",Study/JOL,JAM_Rating,22364,,,21789,21850,,,,20,0.394
67acd5d94f0cda8de4e1a1d4,ul455tkfff,"Mediated JOLs",1,76,2025-03-25T02:39:31+00:00,9.7649230957031,1,JAM_stim.csv,JAM_proc.csv,JAM,JAM,HEAVY,BIRD,Study1,M,68,91,JAM,User,-,"How many inidividuals out of 100 would provide the second word in this pair as their immediate response to the first word? |Type your response on a scale from 0-100 and then press Enter.",Study/JOL,JAM_Rating,9513,,,-1,-1,,,,,0.882
67acd5d94f0cda8de4e1a1d4,ul455tkfff,"Mediated JOLs",1,77,2025-03-25T02:40:12+00:00,41.431051969528,1,JAM_stim.csv,JAM_proc.csv,JAM,JAM,ROOT,PLANT,Study1,F,110,37,JAM,User,-,"How many inidividuals out of 100 would provide the second word in this pair as their immediate response to the first word? |Type your response on a scale from 0-100 and then press Enter.",Study/JOL,JAM_Rating,19058,,,18516,18780,,,,90,0.888
67acd5d94f0cda8de4e1a1d4,ul455tkfff,"Mediated JOLs",1,78,2025-03-25T02:40:21+00:00,8.5741009712219,1,JAM_stim.csv,JAM_proc.csv,JAM,JAM,CACTUS,PLANT,Study1,F,121,48,JAM,User,-,"How many inidividuals out of 100 would provide the second word in this pair as their immediate response to the first word? |Type your response on a scale from 0-100 and then press Enter.",Study/JOL,JAM_Rating,8300,,,7719,8015,,,,90,0.867
67acd5d94f0cda8de4e1a1d4,ul455tkfff,"Mediated JOLs",1,79,2025-03-25T02:40:30+00:00,9.4272391796112,1,JAM_stim.csv,JAM_proc.csv,JAM,JAM,DIETARY,SACK,Study1,U,97,27,JAM,User,-,"How many inidividuals out of 100 would provide the second word in this pair as their immediate response to the first word? |Type your response on a scale from 0-100 and then press Enter.",Study/JOL,JAM_Rating,9169,,,8534,8534,,,,1,0.867
67acd5d94f0cda8de4e1a1d4,ul455tkfff,"Mediated JOLs",1,80,2025-03-25T02:40:39+00:00,8.9867849349976,1,JAM_stim.csv,JAM_proc.csv,JAM,JAM,WAGE,MONEY,Study1,F,107,65,JAM,User,-,"How many inidividuals out of 100 would provide the second word in this pair as their immediate response to the first word? |Type your response on a scale from 0-100 and then press Enter.",Study/JOL,JAM_Rating,8737,,,8146,8462,,,,90,0.875
67acd5d94f0cda8de4e1a1d4,ul455tkfff,"Mediated JOLs",1,81,2025-03-25T02:40:48+00:00,8.263247013092,1,JAM_stim.csv,JAM_proc.csv,JAM,JAM,SIGN,TICK,Study1,U,47,12,JAM,User,-,"How many inidividuals out of 100 would provide the second word in this pair as their immediate response to the first word? |Type your response on a scale from 0-100 and then press Enter.",Study/JOL,JAM_Rating,7993,,,7342,7342,,,,1,0.893
67acd5d94f0cda8de4e1a1d4,ul455tkfff,"Mediated JOLs",1,82,2025-03-25T02:40:57+00:00,8.832948923111,1,JAM_stim.csv,JAM_proc.csv,JAM,JAM,DOCUMENT,PAPER,Study1,F,127,85,JAM,User,-,"How many inidividuals out of 100 would provide the second word in this pair as their immediate response to the first word? |Type your response on a scale from 0-100 and then press Enter.",Study/JOL,JAM_Rating,8584,,,8169,8349,,,,85,0.903
67acd5d94f0cda8de4e1a1d4,ul455tkfff,"Mediated JOLs",1,83,2025-03-25T02:41:06+00:00,9.1555490493774,1,JAM_stim.csv,JAM_proc.csv,JAM,JAM,REALITY,WATER,Study1,M,64,40,JAM,User,-,"How many inidividuals out of 100 would provide the second word in this pair as their immediate response to the first word? |Type your response on a scale from 0-100 and then press Enter.",Study/JOL,JAM_Rating,8909,,,8278,8278,,,,1,0.909
67acd5d94f0cda8de4e1a1d4,ul455tkfff,"Mediated JOLs",1,84,2025-03-25T02:41:14+00:00,7.853257894516,1,JAM_stim.csv,JAM_proc.csv,JAM,JAM,ROUGH,WORM,Study1,M,10,70,JAM,User,-,"How many inidividuals out of 100 would provide the second word in this pair as their immediate response to the first word? |Type your response on a scale from 0-100 and then press Enter.",Study/JOL,JAM_Rating,7610,,,7066,7066,,,,1,0.885
67acd5d94f0cda8de4e1a1d4,ul455tkfff,"Mediated JOLs",1,85,2025-03-25T02:41:21+00:00,7.4033770561218,1,JAM_stim.csv,JAM_proc.csv,JAM,JAM,CAKE,HAND,Study1,U,49,45,JAM,User,-,"How many inidividuals out of 100 would provide the second word in this pair as their immediate response to the first word? |Type your response on a scale from 0-100 and then press Enter.",Study/JOL,JAM_Rating,7138,,,6692,6692,,,,1,0.87
67acd5d94f0cda8de4e1a1d4,ul455tkfff,"Mediated JOLs",1,86,2025-03-25T02:41:28+00:00,7.514820098877,1,JAM_stim.csv,JAM_proc.csv,JAM,JAM,NAP,SLEEP,Study1,F,114,28,JAM,User,-,"How many inidividuals out of 100 would provide the second word in this pair as their immediate response to the first word? |Type your response on a scale from 0-100 and then press Enter.",Study/JOL,JAM_Rating,7252,,,6636,6984,,,,90,0.875
67acd5d94f0cda8de4e1a1d4,ul455tkfff,"Mediated JOLs",1,87,2025-03-25T02:41:37+00:00,8.578498840332,1,JAM_stim.csv,JAM_proc.csv,JAM,JAM,NURSE,COURT,Study1,M,66,77,JAM,User,-,"How many inidividuals out of 100 would provide the second word in this pair as their immediate response to the first word? |Type your response on a scale from 0-100 and then press Enter.",Study/JOL,JAM_Rating,8345,,,7979,7979,,,,1,0.889
67acd5d94f0cda8de4e1a1d4,ul455tkfff,"Mediated JOLs",1,88,2025-03-25T02:41:45+00:00,7.7592639923096,1,JAM_stim.csv,JAM_proc.csv,JAM,JAM,LITTER,TRASH,Study1,F,106,9,JAM,User,-,"How many inidividuals out of 100 would provide the second word in this pair as their immediate response to the first word? |Type your response on a scale from 0-100 and then press Enter.",Study/JOL,JAM_Rating,7505,,,7107,7293,,,,95,0.826
67acd5d94f0cda8de4e1a1d4,ul455tkfff,"Mediated JOLs",1,89,2025-03-25T02:41:53+00:00,8.0072221755981,1,JAM_stim.csv,JAM_proc.csv,JAM,JAM,MIRROR,CHILDREN,Study1,U,104,33,JAM,User,-,"How many inidividuals out of 100 would provide the second word in this pair as their immediate response to the first word? |Type your response on a scale from 0-100 and then press Enter.",Study/JOL,JAM_Rating,7765,,,7150,7150,,,,1,0.857
67acd5d94f0cda8de4e1a1d4,ul455tkfff,"Mediated JOLs",1,90,2025-03-25T02:42:02+00:00,8.828311920166,1,JAM_stim.csv,JAM_proc.csv,JAM,JAM,BIRTHDAY,APPLE,Study1,M,9,63,JAM,User,-,"How many inidividuals out of 100 would provide the second word in this pair as their immediate response to the first word? |Type your response on a scale from 0-100 and then press Enter.",Study/JOL,JAM_Rating,8561,,,8164,8164,,,,1,0.815
67acd5d94f0cda8de4e1a1d4,ul455tkfff,"Mediated JOLs",1,91,2025-03-25T02:42:09+00:00,7.6294069290161,1,JAM_stim.csv,JAM_proc.csv,JAM,JAM,INCENSE,SMELL,Study1,F,128,7,JAM,User,-,"How many inidividuals out of 100 would provide the second word in this pair as their immediate response to the first word? |Type your response on a scale from 0-100 and then press Enter.",Study/JOL,JAM_Rating,7381,,,6455,6735,,,,80,0.846
67acd5d94f0cda8de4e1a1d4,ul455tkfff,"Mediated JOLs",1,92,2025-03-25T02:42:17+00:00,7.7734200954437,1,JAM_stim.csv,JAM_proc.csv,JAM,JAM,RAKE,PLANT,Study1,M,69,49,JAM,User,-,"How many inidividuals out of 100 would provide the second word in this pair as their immediate response to the first word? |Type your response on a scale from 0-100 and then press Enter.",Study/JOL,JAM_Rating,7536,,,7309,7309,,,,5,0.885
67acd5d94f0cda8de4e1a1d4,ul455tkfff,"Mediated JOLs",1,93,2025-03-25T02:42:25+00:00,7.5791280269623,1,JAM_stim.csv,JAM_proc.csv,JAM,JAM,BENCH,HORN,Study1,U,98,30,JAM,User,-,"How many inidividuals out of 100 would provide the second word in this pair as their immediate response to the first word? |Type your response on a scale from 0-100 and then press Enter.",Study/JOL,JAM_Rating,7340,,,6818,6818,,,,1,0.88
67acd5d94f0cda8de4e1a1d4,ul455tkfff,"Mediated JOLs",1,94,2025-03-25T02:42:33+00:00,7.911994934082,1,JAM_stim.csv,JAM_proc.csv,JAM,JAM,EYES,TASTE,Study1,M,65,52,JAM,User,-,"How many inidividuals out of 100 would provide the second word in this pair as their immediate response to the first word? |Type your response on a scale from 0-100 and then press Enter.",Study/JOL,JAM_Rating,7669,,,6557,6557,,,,1,0.889
67acd5d94f0cda8de4e1a1d4,ul455tkfff,"Mediated JOLs",1,95,2025-03-25T02:42:51+00:00,17.968079090118,1,JAM_stim.csv,JAM_proc.csv,JAM,JAM,AFFECTION,LOVE,Study1,F,116,78,JAM,User,-,"How many inidividuals out of 100 would provide the second word in this pair as their immediate response to the first word? |Type your response on a scale from 0-100 and then press Enter.",Study/JOL,JAM_Rating,17714,,,17313,17501,,,,95,0.592
67acd5d94f0cda8de4e1a1d4,ul455tkfff,"Mediated JOLs",1,96,2025-03-25T02:42:59+00:00,8.3629949092865,1,JAM_stim.csv,JAM_proc.csv,JAM,JAM,STRETCH,CLOTH,Study1,U,37,83,JAM,User,-,"How many inidividuals out of 100 would provide the second word in this pair as their immediate response to the first word? |Type your response on a scale from 0-100 and then press Enter.",Study/JOL,JAM_Rating,8130,,,7556,7823,,,,70,0.893
67acd5d94f0cda8de4e1a1d4,ul455tkfff,"Mediated JOLs",1,97,2025-03-25T02:43:13+00:00,14.058629989624,1,JAM_stim.csv,JAM_proc.csv,JAM,JAM,TEMPERATURE,MORNING,Study1,U,48,41,JAM,User,-,"How many inidividuals out of 100 would provide the second word in this pair as their immediate response to the first word? |Type your response on a scale from 0-100 and then press Enter.",Study/JOL,JAM_Rating,13802,,,13541,13542,,,,5,0.926
67acd5d94f0cda8de4e1a1d4,ul455tkfff,"Mediated JOLs",1,98,2025-03-25T02:43:21+00:00,8.3860540390015,1,JAM_stim.csv,JAM_proc.csv,JAM,JAM,CHILL,COLD,Study1,F,132,53,JAM,User,-,"How many inidividuals out of 100 would provide the second word in this pair as their immediate response to the first word? |Type your response on a scale from 0-100 and then press Enter.",Study/JOL,JAM_Rating,7991,,,7434,7751,,,,90,0.862
67acd5d94f0cda8de4e1a1d4,ul455tkfff,"Mediated JOLs",1,99,2025-03-25T02:43:33+00:00,11.378824949265,1,JAM_stim.csv,JAM_proc.csv,JAM,JAM,WAR,LOUD,Study1,M,8,76,JAM,User,-,"How many inidividuals out of 100 would provide the second word in this pair as their immediate response to the first word? |Type your response on a scale from 0-100 and then press Enter.",Study/JOL,JAM_Rating,11071,,,10812,10813,,,,3,0.884
67acd5d94f0cda8de4e1a1d4,ul455tkfff,"Mediated JOLs",1,100,2025-03-25T02:43:41+00:00,8.4682860374451,1,JAM_stim.csv,JAM_proc.csv,JAM,JAM,WASP,BUG,Study1,F,134,44,JAM,User,-,"How many inidividuals out of 100 would provide the second word in this pair as their immediate response to the first word? |Type your response on a scale from 0-100 and then press Enter.",Study/JOL,JAM_Rating,8210,,,7809,7991,,,,85,0.931
67acd5d94f0cda8de4e1a1d4,ul455tkfff,"Mediated JOLs",1,101,2025-03-25T02:43:48+00:00,7.2423839569092,1,JAM_stim.csv,JAM_proc.csv,JAM,JAM,BAT,JUMP,Study1,M,12,57,JAM,User,-,"How many inidividuals out of 100 would provide the second word in this pair as their immediate response to the first word? |Type your response on a scale from 0-100 and then press Enter.",Study/JOL,JAM_Rating,7011,,,6349,6349,,,,2,0.875
67acd5d94f0cda8de4e1a1d4,ul455tkfff,"Mediated JOLs",1,102,2025-03-25T02:43:50+00:00,1.9793150424957,1,JAM_stim.csv,JAM_proc.csv,JAM,JAM,,,,,,0,Instruct,User,-,"You have completed this section. Please press Enter.",,Instruct7,1741,,,-1,-1,,,,,1
67acd5d94f0cda8de4e1a1d4,ul455tkfff,"Mediated JOLs",1,103,2025-03-25T02:43:53+00:00,2.3484718799591,1,JAM_stim.csv,JAM_proc.csv,JAM,JAM,,,,,,0,Instruct,User,-,"The following screen will ask you a few questions abour your experience today. You must complete these questions to receive credit.",,Instruct8,2091,,,-1,-1,,,,,1
