Username,ID,ExperimentName,Session,Trial,Date,TimeDif,"Condition Number","Stimuli File","Order File","Condition Description","Condition Notes",Stimuli*Cue,Stimuli*Answer,Stimuli*Shuffle,"Stimuli*Stimuli Notes",Stimuli*Value,Procedure*Item,"Procedure*Trial Type","Procedure*Max Time","Procedure*Min Time",Procedure*Text,"Procedure*Procedure Notes",Procedure*Shuffle,Response*RT,Response*Response,Response*Accuracy,Response*RTfirst,Response*RTlast,Response*strictAcc,Response*lenientAcc,Response*focus,Response*Focus
w10115108MN,sp7ounaorl,"Mediated JOLs",1,1,2024-01-24T23:18:40+00:00,8.8303349018097,1,versionA_stim.csv,ReadVersion.csv,Read,Read1,,,,,,0,Instruct,-,5,"In this section, you will be presented with a series of word pairs. Please study each word pair! Your memory will be tested!",Initial_Instruct,Instruct1,8702,,,-1,-1,,,,1
w10115108MN,sp7ounaorl,"Mediated JOLs",1,2,2024-01-24T23:18:42+00:00,2.0779709815979,1,versionA_stim.csv,ReadVersion.csv,Read,Read1,,,,,,0,Instruct,User,-,"You will now begin. Press Enter when you are ready to begin.",,Instruct16,1922,,,-1,-1,,,,1
w10115108MN,sp7ounaorl,"Mediated JOLs",1,3,2024-01-24T23:18:44+00:00,2.6480510234833,1,versionA_stim.csv,ReadVersion.csv,Read,Read1,TREES,GREEN,BUFFER1,Buffer,1,2,Study,User,-,,Study/JOL,BUFFER,2507,,,-1,-1,,,,1
w10115108MN,sp7ounaorl,"Mediated JOLs",1,4,2024-01-24T23:18:47+00:00,2.918790102005,1,versionA_stim.csv,ReadVersion.csv,Read,Read1,PEANUT,BUTTER,BUFFER1,Buffer,3,5,Study,User,-,,Study/JOL,BUFFER,2070,,,-1,-1,,,,1
w10115108MN,sp7ounaorl,"Mediated JOLs",1,5,2024-01-24T23:18:50+00:00,2.4186940193176,1,versionA_stim.csv,ReadVersion.csv,Read,Read1,SCARE,FRIGHT,BUFFER1,Buffer,4,4,Study,User,-,,Study/JOL,BUFFER,2275,,,-1,-1,,,,1
w10115108MN,sp7ounaorl,"Mediated JOLs",1,6,2024-01-24T23:18:59+00:00,9.0171790122986,1,versionA_stim.csv,ReadVersion.csv,Read,Read1,PITCHER,CATCHER,BUFFER1,Buffer,2,3,Study,User,-,,Study/JOL,BUFFER,8847,,,-1,-1,,,,1
w10115108MN,sp7ounaorl,"Mediated JOLs",1,7,2024-01-24T23:19:04+00:00,5.3560879230499,1,versionA_stim.csv,ReadVersion.csv,Read,Read1,SPACE,JAM,BUFFER1,Buffer,5,6,Study,User,-,,Study/JOL,BUFFER,4385,,,-1,-1,,,,1
w10115108MN,sp7ounaorl,"Mediated JOLs",1,8,2024-01-24T23:19:06+00:00,2.1557309627533,1,versionA_stim.csv,ReadVersion.csv,Read,Read1,MULE,DONKEY,Study1,F,30,22,Study,User,-,,Study/JOL,"Study Phase",1969,,,-1,-1,,,,1
w10115108MN,sp7ounaorl,"Mediated JOLs",1,9,2024-01-24T23:19:09+00:00,2.9498550891876,1,versionA_stim.csv,ReadVersion.csv,Read,Read1,WEDDING,FINGER,Study1,M,17,39,Study,User,-,,Study/JOL,"Study Phase",1644,,,-1,-1,,,,1
w10115108MN,sp7ounaorl,"Mediated JOLs",1,10,2024-01-24T23:19:12+00:00,2.7802400588989,1,versionA_stim.csv,ReadVersion.csv,Read,Read1,ROUGH,SILK,Study1,M,10,45,Study,User,-,,Study/JOL,"Study Phase",1449,,,-1,-1,,,,1
w10115108MN,sp7ounaorl,"Mediated JOLs",1,11,2024-01-24T23:19:16+00:00,4.1701819896698,1,versionA_stim.csv,ReadVersion.csv,Read,Read1,SIGN,TICK,Study1,U,47,11,Study,User,-,,Study/JOL,"Study Phase",1831,,,-1,-1,,,,1
w10115108MN,sp7ounaorl,"Mediated JOLs",1,12,2024-01-24T23:19:22+00:00,5.8174488544464,1,versionA_stim.csv,ReadVersion.csv,Read,Read1,WAR,QUIET,Study1,M,8,49,Study,User,-,,Study/JOL,"Study Phase",4653,,,-1,-1,,,,1
w10115108MN,sp7ounaorl,"Mediated JOLs",1,13,2024-01-24T23:19:24+00:00,2.0355191230774,1,versionA_stim.csv,ReadVersion.csv,Read,Read1,CAKE,HAND,Study1,U,49,26,Study,User,-,,Study/JOL,"Study Phase",1890,,,-1,-1,,,,1
w10115108MN,sp7ounaorl,"Mediated JOLs",1,14,2024-01-24T23:19:27+00:00,2.5363988876343,1,versionA_stim.csv,ReadVersion.csv,Read,Read1,MEAT,KEYS,Study1,U,41,30,Study,User,-,,Study/JOL,"Study Phase",2394,,,-1,-1,,,,1
w10115108MN,sp7ounaorl,"Mediated JOLs",1,15,2024-01-24T23:19:31+00:00,4.4444100856781,1,versionA_stim.csv,ReadVersion.csv,Read,Read1,CIRCLE,DANCE,Study1,M,13,40,Study,User,-,,Study/JOL,"Study Phase",4270,,,-1,-1,,,,1
w10115108MN,sp7ounaorl,"Mediated JOLs",1,16,2024-01-24T23:19:33+00:00,1.6578328609467,1,versionA_stim.csv,ReadVersion.csv,Read,Read1,CREDIT,CARD,Study1,F,33,36,Study,User,-,,Study/JOL,"Study Phase",1509,,,-1,-1,,,,1
w10115108MN,sp7ounaorl,"Mediated JOLs",1,17,2024-01-24T23:19:34+00:00,1.6276471614838,1,versionA_stim.csv,ReadVersion.csv,Read,Read1,WORD,SENTENCE,Study1,F,27,51,Study,User,-,,Study/JOL,"Study Phase",1489,,,-1,-1,,,,1
w10115108MN,sp7ounaorl,"Mediated JOLs",1,18,2024-01-24T23:19:36+00:00,1.3848719596863,1,versionA_stim.csv,ReadVersion.csv,Read,Read1,LISTEN,FICTION,Study1,U,44,13,Study,User,-,,Study/JOL,"Study Phase",1249,,,-1,-1,,,,1
w10115108MN,sp7ounaorl,"Mediated JOLs",1,19,2024-01-24T23:19:37+00:00,1.4531710147858,1,versionA_stim.csv,ReadVersion.csv,Read,Read1,HYGIENE,CLEAN,Study1,F,28,19,Study,User,-,,Study/JOL,"Study Phase",1313,,,-1,-1,,,,1
w10115108MN,sp7ounaorl,"Mediated JOLs",1,20,2024-01-24T23:19:38+00:00,1.3653328418732,1,versionA_stim.csv,ReadVersion.csv,Read,Read1,CEILING,CARPET,Study1,M,15,7,Study,User,-,,Study/JOL,"Study Phase",1229,,,-1,-1,,,,1
w10115108MN,sp7ounaorl,"Mediated JOLs",1,21,2024-01-24T23:19:41+00:00,2.8520810604095,1,versionA_stim.csv,ReadVersion.csv,Read,Read1,GIVE,STEAK,Study1,U,38,34,Study,User,-,,Study/JOL,"Study Phase",1404,,,-1,-1,,,,1
w10115108MN,sp7ounaorl,"Mediated JOLs",1,22,2024-01-24T23:19:43+00:00,1.5505180358887,1,versionA_stim.csv,ReadVersion.csv,Read,Read1,FUZZY,BANG,Study1,U,50,10,Study,User,-,,Study/JOL,"Study Phase",1415,,,-1,-1,,,,1
w10115108MN,sp7ounaorl,"Mediated JOLs",1,23,2024-01-24T23:19:44+00:00,1.4400451183319,1,versionA_stim.csv,ReadVersion.csv,Read,Read1,SWAN,BIRD,Study1,F,26,41,Study,User,-,,Study/JOL,"Study Phase",1296,,,-1,-1,,,,1
w10115108MN,sp7ounaorl,"Mediated JOLs",1,24,2024-01-24T23:19:46+00:00,1.3131349086761,1,versionA_stim.csv,ReadVersion.csv,Read,Read1,ROOT,PLANT,Study1,F,25,15,Study,User,-,,Study/JOL,"Study Phase",1170,,,-1,-1,,,,1
w10115108MN,sp7ounaorl,"Mediated JOLs",1,25,2024-01-24T23:19:47+00:00,1.3410830497742,1,versionA_stim.csv,ReadVersion.csv,Read,Read1,SCALP,HEAD,Study1,F,23,24,Study,User,-,,Study/JOL,"Study Phase",1196,,,-1,-1,,,,1
w10115108MN,sp7ounaorl,"Mediated JOLs",1,26,2024-01-24T23:19:49+00:00,2.3435199260712,1,versionA_stim.csv,ReadVersion.csv,Read,Read1,CRACKLE,ELECTION,Study1,U,39,29,Study,User,-,,Study/JOL,"Study Phase",2204,,,-1,-1,,,,1
w10115108MN,sp7ounaorl,"Mediated JOLs",1,27,2024-01-24T23:19:51+00:00,1.4358761310577,1,versionA_stim.csv,ReadVersion.csv,Read,Read1,CRY,BOTTLE,Study1,M,16,17,Study,User,-,,Study/JOL,"Study Phase",1289,,,-1,-1,,,,1
w10115108MN,sp7ounaorl,"Mediated JOLs",1,28,2024-01-24T23:19:52+00:00,1.3482799530029,1,versionA_stim.csv,ReadVersion.csv,Read,Read1,WAGE,MONEY,Study1,F,22,18,Study,User,-,,Study/JOL,"Study Phase",1211,,,-1,-1,,,,1
w10115108MN,sp7ounaorl,"Mediated JOLs",1,29,2024-01-24T23:19:53+00:00,1.402382850647,1,versionA_stim.csv,ReadVersion.csv,Read,Read1,LION,STRIPES,Study1,M,6,50,Study,User,-,,Study/JOL,"Study Phase",1262,,,-1,-1,,,,1
w10115108MN,sp7ounaorl,"Mediated JOLs",1,30,2024-01-24T23:19:55+00:00,1.286229133606,1,versionA_stim.csv,ReadVersion.csv,Read,Read1,MAZE,PHONE,Study1,U,42,35,Study,User,-,,Study/JOL,"Study Phase",1139,,,-1,-1,,,,1
w10115108MN,sp7ounaorl,"Mediated JOLs",1,31,2024-01-24T23:19:56+00:00,1.1482539176941,1,versionA_stim.csv,ReadVersion.csv,Read,Read1,SIP,DRINK,Study1,F,32,43,Study,User,-,,Study/JOL,"Study Phase",1010,,,-1,-1,,,,1
w10115108MN,sp7ounaorl,"Mediated JOLs",1,32,2024-01-24T23:19:57+00:00,1.0886359214783,1,versionA_stim.csv,ReadVersion.csv,Read,Read1,TOOTH,HAIR,Study1,M,19,48,Study,User,-,,Study/JOL,"Study Phase",946,,,-1,-1,,,,1
w10115108MN,sp7ounaorl,"Mediated JOLs",1,33,2024-01-24T23:19:58+00:00,1.0791940689087,1,versionA_stim.csv,ReadVersion.csv,Read,Read1,HARD,COTTON,Study1,M,20,38,Study,User,-,,Study/JOL,"Study Phase",945,,,-1,-1,,,,1
w10115108MN,sp7ounaorl,"Mediated JOLs",1,34,2024-01-24T23:19:59+00:00,1.2017779350281,1,versionA_stim.csv,ReadVersion.csv,Read,Read1,BAT,BOUNCE,Study1,M,12,37,Study,User,-,,Study/JOL,"Study Phase",1068,,,-1,-1,,,,1
w10115108MN,sp7ounaorl,"Mediated JOLs",1,35,2024-01-24T23:20:00+00:00,1.0513651371002,1,versionA_stim.csv,ReadVersion.csv,Read,Read1,LITTER,TRASH,Study1,F,21,27,Study,User,-,,Study/JOL,"Study Phase",910,,,-1,-1,,,,1
w10115108MN,sp7ounaorl,"Mediated JOLs",1,36,2024-01-24T23:20:02+00:00,1.2132439613342,1,versionA_stim.csv,ReadVersion.csv,Read,Read1,KEYS,ROD,Study1,U,45,25,Study,User,-,,Study/JOL,"Study Phase",1075,,,-1,-1,,,,1
w10115108MN,sp7ounaorl,"Mediated JOLs",1,37,2024-01-24T23:20:03+00:00,1.1395280361176,1,versionA_stim.csv,ReadVersion.csv,Read,Read1,MIRROR,MAROON,Study1,U,36,20,Study,User,-,,Study/JOL,"Study Phase",997,,,-1,-1,,,,1
w10115108MN,sp7ounaorl,"Mediated JOLs",1,38,2024-01-24T23:20:04+00:00,1.1377689838409,1,versionA_stim.csv,ReadVersion.csv,Read,Read1,TUNA,FISH,Study1,F,35,14,Study,User,-,,Study/JOL,"Study Phase",994,,,-1,-1,,,,1
w10115108MN,sp7ounaorl,"Mediated JOLs",1,39,2024-01-24T23:20:05+00:00,1.0597779750824,1,versionA_stim.csv,ReadVersion.csv,Read,Read1,BEACH,BOX,Study1,M,7,42,Study,User,-,,Study/JOL,"Study Phase",912,,,-1,-1,,,,1
w10115108MN,sp7ounaorl,"Mediated JOLs",1,40,2024-01-24T23:20:06+00:00,1.2522010803223,1,versionA_stim.csv,ReadVersion.csv,Read,Read1,TEMPERATURE,MORNING,Study1,U,48,44,Study,User,-,,Study/JOL,"Study Phase",1113,,,-1,-1,,,,1
w10115108MN,sp7ounaorl,"Mediated JOLs",1,41,2024-01-24T23:20:07+00:00,1.0381088256836,1,versionA_stim.csv,ReadVersion.csv,Read,Read1,HORSE,WHEEL,Study1,M,14,46,Study,User,-,,Study/JOL,"Study Phase",899,,,-1,-1,,,,1
w10115108MN,sp7ounaorl,"Mediated JOLs",1,42,2024-01-24T23:20:08+00:00,1.2166390419006,1,versionA_stim.csv,ReadVersion.csv,Read,Read1,BIRTHDAY,PIE,Study1,M,9,32,Study,User,-,,Study/JOL,"Study Phase",1088,,,-1,-1,,,,1
w10115108MN,sp7ounaorl,"Mediated JOLs",1,43,2024-01-24T23:20:10+00:00,1.1345670223236,1,versionA_stim.csv,ReadVersion.csv,Read,Read1,ORCHID,FLOWER,Study1,F,34,23,Study,User,-,,Study/JOL,"Study Phase",1001,,,-1,-1,,,,1
w10115108MN,sp7ounaorl,"Mediated JOLs",1,44,2024-01-24T23:20:11+00:00,1.1059989929199,1,versionA_stim.csv,ReadVersion.csv,Read,Read1,STRETCH,CLOTH,Study1,U,37,12,Study,User,-,,Study/JOL,"Study Phase",972,,,-1,-1,,,,1
w10115108MN,sp7ounaorl,"Mediated JOLs",1,45,2024-01-24T23:20:12+00:00,1.1659729480743,1,versionA_stim.csv,ReadVersion.csv,Read,Read1,MULE,DONKEY,Study1,F,24,33,Study,User,-,,Study/JOL,"Study Phase",1029,,,-1,-1,,,,1
w10115108MN,sp7ounaorl,"Mediated JOLs",1,46,2024-01-24T23:20:13+00:00,1.3758981227875,1,versionA_stim.csv,ReadVersion.csv,Read,Read1,TREE,SYRUP,Study1,M,11,16,Study,User,-,,Study/JOL,"Study Phase",1243,,,-1,-1,,,,1
w10115108MN,sp7ounaorl,"Mediated JOLs",1,47,2024-01-24T23:20:14+00:00,1.2134420871735,1,versionA_stim.csv,ReadVersion.csv,Read,Read1,AFFECTION,LOVE,Study1,F,31,9,Study,User,-,,Study/JOL,"Study Phase",1072,,,-1,-1,,,,1
w10115108MN,sp7ounaorl,"Mediated JOLs",1,48,2024-01-24T23:20:18+00:00,3.5542349815369,1,versionA_stim.csv,ReadVersion.csv,Read,Read1,SHELL,SHAKE,Study1,U,43,8,Study,User,-,,Study/JOL,"Study Phase",3417,,,-1,-1,,,,1
w10115108MN,sp7ounaorl,"Mediated JOLs",1,49,2024-01-24T23:20:21+00:00,3.4363489151001,1,versionA_stim.csv,ReadVersion.csv,Read,Read1,DAY,DARK,Study1,M,18,21,Study,User,-,,Study/JOL,"Study Phase",3291,,,-1,-1,,,,1
w10115108MN,sp7ounaorl,"Mediated JOLs",1,50,2024-01-24T23:20:23+00:00,1.1318459510803,1,versionA_stim.csv,ReadVersion.csv,Read,Read1,SOON,BELT,Study1,U,46,28,Study,User,-,,Study/JOL,"Study Phase",983,,,-1,-1,,,,1
w10115108MN,sp7ounaorl,"Mediated JOLs",1,51,2024-01-24T23:20:26+00:00,3.2638411521912,1,versionA_stim.csv,ReadVersion.csv,Read,Read1,VEHICLE,CHARM,Study1,U,40,31,Study,User,-,,Study/JOL,"Study Phase",2949,,,-1,-1,,,,1
w10115108MN,sp7ounaorl,"Mediated JOLs",1,52,2024-01-24T23:20:27+00:00,1.355367898941,1,versionA_stim.csv,ReadVersion.csv,Read,Read1,NAP,SLEEP,Study1,F,29,47,Study,User,-,,Study/JOL,"Study Phase",1212,,,-1,-1,,,,1
w10115108MN,sp7ounaorl,"Mediated JOLs",1,53,2024-01-24T23:20:28+00:00,1.1365880966187,1,versionA_stim.csv,ReadVersion.csv,Read,Read1,SPRING,MARCH,BUFFER3,Buffer,59,57,Study,User,-,,Study/JOL,BUFFER2,1000,,,-1,-1,,,,1
w10115108MN,sp7ounaorl,"Mediated JOLs",1,54,2024-01-24T23:20:30+00:00,1.3968408107758,1,versionA_stim.csv,ReadVersion.csv,Read,Read1,NOODLE,STRING,BUFFER4,Buffer,107,108,Study,User,-,,Study/JOL,BUFFER2,1259,,,-1,-1,,,,1
w10115108MN,sp7ounaorl,"Mediated JOLs",1,55,2024-01-24T23:20:31+00:00,1.177915096283,1,versionA_stim.csv,ReadVersion.csv,Read,Read1,GEESE,GOOSE,BUFFER2,Buffer,51,52,Study,User,-,,Study/JOL,BUFFER2,1036,,,-1,-1,,,,1
w10115108MN,sp7ounaorl,"Mediated JOLs",1,56,2024-01-24T23:20:35+00:00,4.3614249229431,1,versionA_stim.csv,ReadVersion.csv,Read,Read1,MOON,SPACE,BUFFER2,Buffer,54,53,Study,User,-,,Study/JOL,BUFFER2,4183,,,-1,-1,,,,1
w10115108MN,sp7ounaorl,"Mediated JOLs",1,57,2024-01-24T23:20:36+00:00,1.258672952652,1,versionA_stim.csv,ReadVersion.csv,Read,Read1,CARROT,POTATO,BUFFER4,Buffer,106,111,Study,User,-,,Study/JOL,BUFFER2,1111,,,-1,-1,,,,1
w10115108MN,sp7ounaorl,"Mediated JOLs",1,58,2024-01-24T23:20:38+00:00,1.9040582180023,1,versionA_stim.csv,ReadVersion.csv,Read,Read1,,,,,,0,Instruct,User,-,"You have completed this section. Please press Enter.",Filler_Instruction,Instruct2,1764,,,-1,-1,,,,1
w10115108MN,sp7ounaorl,"Mediated JOLs",1,59,2024-01-24T23:22:39+00:00,120.29900979996,1,versionA_stim.csv,ReadVersion.csv,Read,Read1,,,,,,0,FreeRecall,120,120,"Please list the 50 US states in alphabetical order. The task will automatically advance to the next screen after two minutes.",,Filler1,120003,"Alabama alaska arizona arkansas california colorado connecticut delaware florida georgia ",0,12087,118924,0,0,,1
w10115108MN,sp7ounaorl,"Mediated JOLs",1,60,2024-01-24T23:22:50+00:00,11.335151195526,1,versionA_stim.csv,ReadVersion.csv,Read,Read1,,,,,,0,Instruct,-,10,"You will now be presented with the first word from each of the previously studied item pairs. Please type the missing word. If you do not know the word, you may guess or press Enter to skip forward to the next pair.",,Instruct3,11063,,,-1,-1,,,,0.857
w10115108MN,sp7ounaorl,"Mediated JOLs",1,61,2024-01-24T23:22:52+00:00,2.2367219924927,1,versionA_stim.csv,ReadVersion.csv,Read,Read1,ORCHID,FLOWER,Study1,F,34,23,Test,User,-,,Recall,Recall1,2088,,0,-1,-1,0,0,,1
w10115108MN,sp7ounaorl,"Mediated JOLs",1,62,2024-01-24T23:22:56+00:00,3.5518968105316,1,versionA_stim.csv,ReadVersion.csv,Read,Read1,MULE,DONKEY,Study1,F,30,22,Test,User,-,,Recall,Recall1,3390,donkey,100,1786,2467,1,1,,1
w10115108MN,sp7ounaorl,"Mediated JOLs",1,63,2024-01-24T23:22:57+00:00,1.56285405159,1,versionA_stim.csv,ReadVersion.csv,Read,Read1,SOON,BELT,Study1,U,46,28,Test,User,-,,Recall,Recall1,1431,,0,-1,-1,0,0,,1
w10115108MN,sp7ounaorl,"Mediated JOLs",1,64,2024-01-24T23:23:03+00:00,5.9353890419006,1,versionA_stim.csv,ReadVersion.csv,Read,Read1,AFFECTION,LOVE,Study1,F,31,9,Test,User,-,,Recall,Recall1,5739,love,100,4427,4851,1,1,,1
w10115108MN,sp7ounaorl,"Mediated JOLs",1,65,2024-01-24T23:23:05+00:00,1.8868699073792,1,versionA_stim.csv,ReadVersion.csv,Read,Read1,SHELL,SHAKE,Study1,U,43,8,Test,User,-,,Recall,Recall1,1751,,0,-1,-1,0,0,,1
w10115108MN,sp7ounaorl,"Mediated JOLs",1,66,2024-01-24T23:23:07+00:00,1.865373134613,1,versionA_stim.csv,ReadVersion.csv,Read,Read1,CEILING,CARPET,Study1,M,15,7,Test,User,-,,Recall,Recall1,1627,,0,-1,-1,0,0,,1
w10115108MN,sp7ounaorl,"Mediated JOLs",1,67,2024-01-24T23:23:09+00:00,1.8895800113678,1,versionA_stim.csv,ReadVersion.csv,Read,Read1,TOOTH,HAIR,Study1,M,19,48,Test,User,-,,Recall,Recall1,1750,,0,-1,-1,0,0,,1
w10115108MN,sp7ounaorl,"Mediated JOLs",1,68,2024-01-24T23:23:13+00:00,3.7892470359802,1,versionA_stim.csv,ReadVersion.csv,Read,Read1,WAGE,MONEY,Study1,F,22,18,Test,User,-,,Recall,Recall1,3637,pay,25,2085,2685,0,0,,1
w10115108MN,sp7ounaorl,"Mediated JOLs",1,69,2024-01-24T23:23:15+00:00,1.8155038356781,1,versionA_stim.csv,ReadVersion.csv,Read,Read1,TUNA,FISH,Study1,F,35,14,Test,User,-,,Recall,Recall1,1687,,0,-1,-1,0,0,,1
w10115108MN,sp7ounaorl,"Mediated JOLs",1,70,2024-01-24T23:23:19+00:00,4.0858981609344,1,versionA_stim.csv,ReadVersion.csv,Read,Read1,SIGN,TICK,Study1,U,47,11,Test,User,-,,Recall,Recall1,1822,,0,-1,-1,0,0,,1
w10115108MN,sp7ounaorl,"Mediated JOLs",1,71,2024-01-24T23:23:21+00:00,2.3143908977509,1,versionA_stim.csv,ReadVersion.csv,Read,Read1,WORD,SENTENCE,Study1,F,27,51,Test,User,-,,Recall,Recall1,1895,,0,-1,-1,0,0,,1
w10115108MN,sp7ounaorl,"Mediated JOLs",1,72,2024-01-24T23:23:26+00:00,4.9194459915161,1,versionA_stim.csv,ReadVersion.csv,Read,Read1,WAR,QUIET,Study1,M,8,49,Test,User,-,,Recall,Recall1,4731,,0,-1,-1,0,0,,1
w10115108MN,sp7ounaorl,"Mediated JOLs",1,73,2024-01-24T23:23:28+00:00,1.8166859149933,1,versionA_stim.csv,ReadVersion.csv,Read,Read1,WEDDING,FINGER,Study1,M,17,39,Test,User,-,,Recall,Recall1,1680,,0,-1,-1,0,0,,1
w10115108MN,sp7ounaorl,"Mediated JOLs",1,74,2024-01-24T23:23:30+00:00,1.9039671421051,1,versionA_stim.csv,ReadVersion.csv,Read,Read1,BAT,BOUNCE,Study1,M,12,37,Test,User,-,,Recall,Recall1,1764,,0,-1,-1,0,0,,1
w10115108MN,sp7ounaorl,"Mediated JOLs",1,75,2024-01-24T23:23:32+00:00,2.1834139823914,1,versionA_stim.csv,ReadVersion.csv,Read,Read1,ROUGH,SILK,Study1,M,10,45,Test,User,-,,Recall,Recall1,2033,,0,-1,-1,0,0,,1
w10115108MN,sp7ounaorl,"Mediated JOLs",1,76,2024-01-24T23:23:33+00:00,1.3469700813293,1,versionA_stim.csv,ReadVersion.csv,Read,Read1,SIP,DRINK,Study1,F,32,43,Test,User,-,,Recall,Recall1,1210,,0,-1,-1,0,0,,1
w10115108MN,sp7ounaorl,"Mediated JOLs",1,77,2024-01-24T23:23:36+00:00,3.2399508953094,1,versionA_stim.csv,ReadVersion.csv,Read,Read1,LISTEN,FICTION,Study1,U,44,13,Test,User,-,,Recall,Recall1,3089,,0,-1,-1,0,0,,1
w10115108MN,sp7ounaorl,"Mediated JOLs",1,78,2024-01-24T23:23:39+00:00,2.4786820411682,1,versionA_stim.csv,ReadVersion.csv,Read,Read1,STRETCH,CLOTH,Study1,U,37,12,Test,User,-,,Recall,Recall1,2340,,0,-1,-1,0,0,,1
w10115108MN,sp7ounaorl,"Mediated JOLs",1,79,2024-01-24T23:23:41+00:00,2.3389520645142,1,versionA_stim.csv,ReadVersion.csv,Read,Read1,HARD,COTTON,Study1,M,20,38,Test,User,-,,Recall,Recall1,2202,,0,-1,-1,0,0,,1
w10115108MN,sp7ounaorl,"Mediated JOLs",1,80,2024-01-24T23:23:43+00:00,2.2995929718018,1,versionA_stim.csv,ReadVersion.csv,Read,Read1,SCALP,HEAD,Study1,F,23,24,Test,User,-,,Recall,Recall1,2163,,0,-1,-1,0,0,,1
w10115108MN,sp7ounaorl,"Mediated JOLs",1,81,2024-01-24T23:23:46+00:00,2.4805529117584,1,versionA_stim.csv,ReadVersion.csv,Read,Read1,TEMPERATURE,MORNING,Study1,U,48,44,Test,User,-,,Recall,Recall1,2321,,0,-1,-1,0,0,,1
w10115108MN,sp7ounaorl,"Mediated JOLs",1,82,2024-01-24T23:23:48+00:00,1.6001720428467,1,versionA_stim.csv,ReadVersion.csv,Read,Read1,CRY,BOTTLE,Study1,M,16,17,Test,User,-,,Recall,Recall1,1464,,0,-1,-1,0,0,,1
w10115108MN,sp7ounaorl,"Mediated JOLs",1,83,2024-01-24T23:23:49+00:00,1.5508089065552,1,versionA_stim.csv,ReadVersion.csv,Read,Read1,MIRROR,MAROON,Study1,U,36,20,Test,User,-,,Recall,Recall1,1417,,0,-1,-1,0,0,,1
w10115108MN,sp7ounaorl,"Mediated JOLs",1,84,2024-01-24T23:23:50+00:00,1.3009371757507,1,versionA_stim.csv,ReadVersion.csv,Read,Read1,GIVE,STEAK,Study1,U,38,34,Test,User,-,,Recall,Recall1,1165,,0,-1,-1,0,0,,1
w10115108MN,sp7ounaorl,"Mediated JOLs",1,85,2024-01-24T23:23:53+00:00,2.7765519618988,1,versionA_stim.csv,ReadVersion.csv,Read,Read1,VEHICLE,CHARM,Study1,U,40,31,Test,User,-,,Recall,Recall1,2633,,0,-1,-1,0,0,,1
w10115108MN,sp7ounaorl,"Mediated JOLs",1,86,2024-01-24T23:23:55+00:00,1.627984046936,1,versionA_stim.csv,ReadVersion.csv,Read,Read1,CRACKLE,ELECTION,Study1,U,39,29,Test,User,-,,Recall,Recall1,1495,,0,-1,-1,0,0,,1
w10115108MN,sp7ounaorl,"Mediated JOLs",1,87,2024-01-24T23:23:58+00:00,3.5055739879608,1,versionA_stim.csv,ReadVersion.csv,Read,Read1,CREDIT,CARD,Study1,F,33,36,Test,User,-,,Recall,Recall1,3333,card,100,1926,2379,1,1,,1
w10115108MN,sp7ounaorl,"Mediated JOLs",1,88,2024-01-24T23:24:00+00:00,2.1756358146667,1,versionA_stim.csv,ReadVersion.csv,Read,Read1,LITTER,TRASH,Study1,F,21,27,Test,User,-,,Recall,Recall1,2049,,0,-1,-1,0,0,,1
w10115108MN,sp7ounaorl,"Mediated JOLs",1,89,2024-01-24T23:24:03+00:00,2.3516361713409,1,versionA_stim.csv,ReadVersion.csv,Read,Read1,HORSE,WHEEL,Study1,M,14,46,Test,User,-,,Recall,Recall1,2207,,0,-1,-1,0,0,,1
w10115108MN,sp7ounaorl,"Mediated JOLs",1,90,2024-01-24T23:24:09+00:00,6.2591078281403,1,versionA_stim.csv,ReadVersion.csv,Read,Read1,MEAT,KEYS,Study1,U,41,30,Test,User,-,,Recall,Recall1,6067,keys,100,4614,4948,1,1,,1
w10115108MN,sp7ounaorl,"Mediated JOLs",1,91,2024-01-24T23:24:13+00:00,3.9400479793549,1,versionA_stim.csv,ReadVersion.csv,Read,Read1,MULE,DONKEY,Study1,F,24,33,Test,User,-,,Recall,Recall1,3786,donkey,100,2235,2900,1,1,,1
w10115108MN,sp7ounaorl,"Mediated JOLs",1,92,2024-01-24T23:24:15+00:00,1.8173861503601,1,versionA_stim.csv,ReadVersion.csv,Read,Read1,SWAN,BIRD,Study1,F,26,41,Test,User,-,,Recall,Recall1,1688,,0,-1,-1,0,0,,1
w10115108MN,sp7ounaorl,"Mediated JOLs",1,93,2024-01-24T23:24:19+00:00,3.6503438949585,1,versionA_stim.csv,ReadVersion.csv,Read,Read1,TREE,SYRUP,Study1,M,11,16,Test,User,-,,Recall,Recall1,3483,green,20,1779,2378,0,0,,1
w10115108MN,sp7ounaorl,"Mediated JOLs",1,94,2024-01-24T23:24:20+00:00,1.5688321590424,1,versionA_stim.csv,ReadVersion.csv,Read,Read1,CAKE,HAND,Study1,U,49,26,Test,User,-,,Recall,Recall1,1439,,0,-1,-1,0,0,,1
w10115108MN,sp7ounaorl,"Mediated JOLs",1,95,2024-01-24T23:24:24+00:00,4.0854167938232,1,versionA_stim.csv,ReadVersion.csv,Read,Read1,DAY,DARK,Study1,M,18,21,Test,User,-,,Recall,Recall1,3916,night,0,2378,2995,0,0,,1
w10115108MN,sp7ounaorl,"Mediated JOLs",1,96,2024-01-24T23:24:28+00:00,3.5784680843353,1,versionA_stim.csv,ReadVersion.csv,Read,Read1,KEYS,ROD,Study1,U,45,25,Test,User,-,,Recall,Recall1,3426,,0,-1,-1,0,0,,1
w10115108MN,sp7ounaorl,"Mediated JOLs",1,97,2024-01-24T23:24:32+00:00,4.3382859230042,1,versionA_stim.csv,ReadVersion.csv,Read,Read1,HYGIENE,CLEAN,Study1,F,28,19,Test,User,-,,Recall,Recall1,4154,clean,100,2615,3148,1,1,,1
w10115108MN,sp7ounaorl,"Mediated JOLs",1,98,2024-01-24T23:24:34+00:00,1.9505581855774,1,versionA_stim.csv,ReadVersion.csv,Read,Read1,BIRTHDAY,PIE,Study1,M,9,32,Test,User,-,,Recall,Recall1,1816,,0,-1,-1,0,0,,1
w10115108MN,sp7ounaorl,"Mediated JOLs",1,99,2024-01-24T23:24:36+00:00,1.6376178264618,1,versionA_stim.csv,ReadVersion.csv,Read,Read1,ROOT,PLANT,Study1,F,25,15,Test,User,-,,Recall,Recall1,1503,,0,-1,-1,0,0,,1
w10115108MN,sp7ounaorl,"Mediated JOLs",1,100,2024-01-24T23:24:38+00:00,2.2332031726837,1,versionA_stim.csv,ReadVersion.csv,Read,Read1,MAZE,PHONE,Study1,U,42,35,Test,User,-,,Recall,Recall1,2096,,0,-1,-1,0,0,,1
w10115108MN,sp7ounaorl,"Mediated JOLs",1,101,2024-01-24T23:24:40+00:00,1.7341918945312,1,versionA_stim.csv,ReadVersion.csv,Read,Read1,CIRCLE,DANCE,Study1,M,13,40,Test,User,-,,Recall,Recall1,1595,,0,-1,-1,0,0,,1
w10115108MN,sp7ounaorl,"Mediated JOLs",1,102,2024-01-24T23:24:43+00:00,3.0333209037781,1,versionA_stim.csv,ReadVersion.csv,Read,Read1,FUZZY,BANG,Study1,U,50,10,Test,User,-,,Recall,Recall1,2896,,0,-1,-1,0,0,,1
w10115108MN,sp7ounaorl,"Mediated JOLs",1,103,2024-01-24T23:24:44+00:00,1.3300120830536,1,versionA_stim.csv,ReadVersion.csv,Read,Read1,BEACH,BOX,Study1,M,7,42,Test,User,-,,Recall,Recall1,1191,,0,-1,-1,0,0,,1
w10115108MN,sp7ounaorl,"Mediated JOLs",1,104,2024-01-24T23:24:47+00:00,3.3705499172211,1,versionA_stim.csv,ReadVersion.csv,Read,Read1,NAP,SLEEP,Study1,F,29,47,Test,User,-,,Recall,Recall1,3231,,0,-1,-1,0,0,,1
w10115108MN,sp7ounaorl,"Mediated JOLs",1,105,2024-01-24T23:24:54+00:00,6.7461431026459,1,versionA_stim.csv,ReadVersion.csv,Read,Read1,LION,STRIPES,Study1,M,6,50,Test,User,-,,Recall,Recall1,6566,,0,-1,-1,0,0,,1
w10115108MN,sp7ounaorl,"Mediated JOLs",1,106,2024-01-24T23:25:14+00:00,20.106817960739,1,versionA_stim.csv,ReadVersion.csv,Read,Read1,,,,,,0,Instruct,-,10,"You will now be presented with a new set of word pairs. Please study each pair. Remember that your memory will be tested! When finished, press Enter to move to the next pair.",Initial_Instruct,Instruct4,19911,,,-1,-1,,,,0.857
w10115108MN,sp7ounaorl,"Mediated JOLs",1,107,2024-01-24T23:25:16+00:00,1.506227016449,1,versionA_stim.csv,ReadVersion.csv,Read,Read1,,,,,,0,Instruct,User,-,"Press Enter when you are readty to begin",,Instruct11,1352,,,-1,-1,,,,1
w10115108MN,sp7ounaorl,"Mediated JOLs",1,108,2024-01-24T23:25:18+00:00,2.666069984436,1,versionA_stim.csv,ReadVersion.csv,Read,Read1,SHRIMP,FISH,BUFFER4,Buffer,108,107,Study,User,-,,Study/JOL,BUFFER2,2517,,,-1,-1,,,,1
w10115108MN,sp7ounaorl,"Mediated JOLs",1,109,2024-01-24T23:25:21+00:00,2.2836511135101,1,versionA_stim.csv,ReadVersion.csv,Read,Read1,MALT,CHOCOLATE,BUFFER2,Buffer,53,55,Study,User,-,,Study/JOL,BUFFER2,2135,,,-1,-1,,,,1
w10115108MN,sp7ounaorl,"Mediated JOLs",1,110,2024-01-24T23:25:23+00:00,1.8689248561859,1,versionA_stim.csv,ReadVersion.csv,Read,Read1,OCTOBER,SPOOKY,BUFFER3,Buffer,60,58,Study,User,-,,Study/JOL,BUFFER2,1725,,,-1,-1,,,,1
w10115108MN,sp7ounaorl,"Mediated JOLs",1,111,2024-01-24T23:25:24+00:00,1.8816220760345,1,versionA_stim.csv,ReadVersion.csv,Read,Read1,CAMP,ADVENTURE,BUFFER4,Buffer,110,110,Study,User,-,,Study/JOL,BUFFER2,1717,,,-1,-1,,,,1
w10115108MN,sp7ounaorl,"Mediated JOLs",1,112,2024-01-24T23:25:26+00:00,1.8463020324707,1,versionA_stim.csv,ReadVersion.csv,Read,Read1,MONTH,YEAR,BUFFER3,Buffer,57,60,Study,User,-,,Study/JOL,BUFFER2,1701,,,-1,-1,,,,1
w10115108MN,sp7ounaorl,"Mediated JOLs",1,113,2024-01-24T23:25:28+00:00,1.9823579788208,1,versionA_stim.csv,ReadVersion.csv,Read,Read1,FEUD,FIGHT,Study2,F,86,101,Study,User,-,,Study/JOL,"Study Phase2",1842,,,-1,-1,,,,1
w10115108MN,sp7ounaorl,"Mediated JOLs",1,114,2024-01-24T23:25:30+00:00,1.999813079834,1,versionA_stim.csv,ReadVersion.csv,Read,Read1,DEATH,BUSINESS,Study2,U,99,91,Study,User,-,,Study/JOL,"Study Phase2",1858,,,-1,-1,,,,1
w10115108MN,sp7ounaorl,"Mediated JOLs",1,115,2024-01-24T23:25:32+00:00,2.0859220027924,1,versionA_stim.csv,ReadVersion.csv,Read,Read1,NURSE,LAWYER,Study2,M,66,87,Study,User,-,,Study/JOL,"Study Phase2",1945,,,-1,-1,,,,1
w10115108MN,sp7ounaorl,"Mediated JOLs",1,116,2024-01-24T23:25:34+00:00,1.7601678371429,1,versionA_stim.csv,ReadVersion.csv,Read,Read1,SICK,HIDE,Study2,U,100,70,Study,User,-,,Study/JOL,"Study Phase2",1606,,,-1,-1,,,,1
w10115108MN,sp7ounaorl,"Mediated JOLs",1,117,2024-01-24T23:25:36+00:00,1.837874174118,1,versionA_stim.csv,ReadVersion.csv,Read,Read1,HAPPY,CAR,Study2,U,92,73,Study,User,-,,Study/JOL,"Study Phase2",1693,,,-1,-1,,,,1
w10115108MN,sp7ounaorl,"Mediated JOLs",1,118,2024-01-24T23:25:39+00:00,3.2382748126984,1,versionA_stim.csv,ReadVersion.csv,Read,Read1,OVEN,BASKET,Study2,M,71,98,Study,User,-,,Study/JOL,"Study Phase2",3094,,,-1,-1,,,,1
w10115108MN,sp7ounaorl,"Mediated JOLs",1,119,2024-01-24T23:25:41+00:00,1.4838562011719,1,versionA_stim.csv,ReadVersion.csv,Read,Read1,DOCUMENT,PAPER,Study2,F,82,67,Study,User,-,,Study/JOL,"Study Phase2",1338,,,-1,-1,,,,1
w10115108MN,sp7ounaorl,"Mediated JOLs",1,120,2024-01-24T23:25:42+00:00,1.5171148777008,1,versionA_stim.csv,ReadVersion.csv,Read,Read1,SCHOOL,STOP,Study2,M,62,95,Study,User,-,,Study/JOL,"Study Phase2",1373,,,-1,-1,,,,1
w10115108MN,sp7ounaorl,"Mediated JOLs",1,121,2024-01-24T23:25:44+00:00,1.5681970119476,1,versionA_stim.csv,ReadVersion.csv,Read,Read1,BLAZE,FIRE,Study2,F,81,83,Study,User,-,,Study/JOL,"Study Phase2",1420,,,-1,-1,,,,1
w10115108MN,sp7ounaorl,"Mediated JOLs",1,122,2024-01-24T23:25:45+00:00,1.6360950469971,1,versionA_stim.csv,ReadVersion.csv,Read,Read1,ATTIRE,CLOTHES,Study2,F,79,106,Study,User,-,,Study/JOL,"Study Phase2",1486,,,-1,-1,,,,1
w10115108MN,sp7ounaorl,"Mediated JOLs",1,123,2024-01-24T23:25:47+00:00,1.79865193367,1,versionA_stim.csv,ReadVersion.csv,Read,Read1,SUMMER,SNOW,Study2,M,61,94,Study,User,-,,Study/JOL,"Study Phase2",1651,,,-1,-1,,,,1
w10115108MN,sp7ounaorl,"Mediated JOLs",1,124,2024-01-24T23:25:49+00:00,2.2218599319458,1,versionA_stim.csv,ReadVersion.csv,Read,Read1,BOTH,OUNCE,Study2,U,102,64,Study,User,-,,Study/JOL,"Study Phase2",2093,,,-1,-1,,,,1
w10115108MN,sp7ounaorl,"Mediated JOLs",1,125,2024-01-24T23:25:51+00:00,1.7794690132141,1,versionA_stim.csv,ReadVersion.csv,Read,Read1,CHISEL,HAMMER,Study2,F,78,72,Study,User,-,,Study/JOL,"Study Phase2",1636,,,-1,-1,,,,1
w10115108MN,sp7ounaorl,"Mediated JOLs",1,126,2024-01-24T23:25:53+00:00,1.6627700328827,1,versionA_stim.csv,ReadVersion.csv,Read,Read1,LEAGUE,BASEBALL,Study2,F,84,74,Study,User,-,,Study/JOL,"Study Phase2",1506,,,-1,-1,,,,1
w10115108MN,sp7ounaorl,"Mediated JOLs",1,127,2024-01-24T23:25:54+00:00,1.3717830181122,1,versionA_stim.csv,ReadVersion.csv,Read,Read1,CHILL,COLD,Study2,F,87,65,Study,User,-,,Study/JOL,"Study Phase2",1224,,,-1,-1,,,,1
w10115108MN,sp7ounaorl,"Mediated JOLs",1,128,2024-01-24T23:25:56+00:00,1.8484671115875,1,versionA_stim.csv,ReadVersion.csv,Read,Read1,REALITY,ISLAND,Study2,M,64,62,Study,User,-,,Study/JOL,"Study Phase2",1708,,,-1,-1,,,,1
w10115108MN,sp7ounaorl,"Mediated JOLs",1,129,2024-01-24T23:25:59+00:00,2.7682888507843,1,versionA_stim.csv,ReadVersion.csv,Read,Read1,GRILL,THIGH,Study2,M,72,79,Study,User,-,,Study/JOL,"Study Phase2",2628,,,-1,-1,,,,1
w10115108MN,sp7ounaorl,"Mediated JOLs",1,130,2024-01-24T23:26:02+00:00,3.2761991024017,1,versionA_stim.csv,ReadVersion.csv,Read,Read1,KING,VASE,Study2,U,91,77,Study,User,-,,Study/JOL,"Study Phase2",3127,,,-1,-1,,,,1
w10115108MN,sp7ounaorl,"Mediated JOLs",1,131,2024-01-24T23:26:05+00:00,2.3905508518219,1,versionA_stim.csv,ReadVersion.csv,Read,Read1,SOAP,DRINK,Study2,M,67,66,Study,User,-,,Study/JOL,"Study Phase2",2250,,,-1,-1,,,,0.417
w10115108MN,sp7ounaorl,"Mediated JOLs",1,132,2024-01-24T23:26:06+00:00,1.6664531230927,1,versionA_stim.csv,ReadVersion.csv,Read,Read1,CHERRY,RED,Study2,F,80,97,Study,User,-,,Study/JOL,"Study Phase2",1519,,,-1,-1,,,,1
w10115108MN,sp7ounaorl,"Mediated JOLs",1,133,2024-01-24T23:26:08+00:00,1.592973947525,1,versionA_stim.csv,ReadVersion.csv,Read,Read1,CHOP,CUT,Study2,F,77,92,Study,User,-,,Study/JOL,"Study Phase2",1445,,,-1,-1,,,,1
w10115108MN,sp7ounaorl,"Mediated JOLs",1,134,2024-01-24T23:26:09+00:00,1.7002019882202,1,versionA_stim.csv,ReadVersion.csv,Read,Read1,RAZOR,MUSCLE,Study2,M,75,89,Study,User,-,,Study/JOL,"Study Phase2",1560,,,-1,-1,,,,1
w10115108MN,sp7ounaorl,"Mediated JOLs",1,135,2024-01-24T23:26:13+00:00,3.152862071991,1,versionA_stim.csv,ReadVersion.csv,Read,Read1,SUGAR,RIDDLE,Study2,U,95,103,Study,User,-,,Study/JOL,"Study Phase2",3012,,,-1,-1,,,,1
w10115108MN,sp7ounaorl,"Mediated JOLs",1,136,2024-01-24T23:26:14+00:00,1.8001549243927,1,versionA_stim.csv,ReadVersion.csv,Read,Read1,STRONG,ACCIDENT,Study2,U,94,76,Study,User,-,,Study/JOL,"Study Phase2",1655,,,-1,-1,,,,1
w10115108MN,sp7ounaorl,"Mediated JOLs",1,137,2024-01-24T23:26:17+00:00,2.1647779941559,1,versionA_stim.csv,ReadVersion.csv,Read,Read1,INCENSE,SMELL,Study2,F,83,99,Study,User,-,,Study/JOL,"Study Phase2",2010,,,-1,-1,,,,1
w10115108MN,sp7ounaorl,"Mediated JOLs",1,138,2024-01-24T23:26:21+00:00,4.2925879955292,1,versionA_stim.csv,ReadVersion.csv,Read,Read1,TRAP,CAVE,Study2,M,70,96,Study,User,-,,Study/JOL,"Study Phase2",2003,,,-1,-1,,,,1
w10115108MN,sp7ounaorl,"Mediated JOLs",1,139,2024-01-24T23:26:23+00:00,1.9171390533447,1,versionA_stim.csv,ReadVersion.csv,Read,Read1,EYES,SMELL,Study2,M,65,100,Study,User,-,,Study/JOL,"Study Phase2",1778,,,-1,-1,,,,1
w10115108MN,sp7ounaorl,"Mediated JOLs",1,140,2024-01-24T23:26:24+00:00,1.4545481204987,1,versionA_stim.csv,ReadVersion.csv,Read,Read1,ART,WOLF,Study2,U,93,104,Study,User,-,,Study/JOL,"Study Phase2",1299,,,-1,-1,,,,1
w10115108MN,sp7ounaorl,"Mediated JOLs",1,141,2024-01-24T23:26:26+00:00,1.4209778308868,1,versionA_stim.csv,ReadVersion.csv,Read,Read1,WINDOW,KNOB,Study2,M,74,88,Study,User,-,,Study/JOL,"Study Phase2",1268,,,-1,-1,,,,1
w10115108MN,sp7ounaorl,"Mediated JOLs",1,142,2024-01-24T23:26:27+00:00,1.6588220596313,1,versionA_stim.csv,ReadVersion.csv,Read,Read1,DIETARY,SACK,Study2,U,97,105,Study,User,-,,Study/JOL,"Study Phase2",1510,,,-1,-1,,,,1
w10115108MN,sp7ounaorl,"Mediated JOLs",1,143,2024-01-24T23:26:29+00:00,1.5832240581512,1,versionA_stim.csv,ReadVersion.csv,Read,Read1,HERD,COW,Study2,F,88,93,Study,User,-,,Study/JOL,"Study Phase2",1445,,,-1,-1,,,,1
w10115108MN,sp7ounaorl,"Mediated JOLs",1,144,2024-01-24T23:26:31+00:00,1.6205208301544,1,versionA_stim.csv,ReadVersion.csv,Read,Read1,BENCH,HORN,Study2,U,98,102,Study,User,-,,Study/JOL,"Study Phase2",1479,,,-1,-1,,,,1
w10115108MN,sp7ounaorl,"Mediated JOLs",1,145,2024-01-24T23:26:33+00:00,2.0492219924927,1,versionA_stim.csv,ReadVersion.csv,Read,Read1,PUSH,CLUTTER,Study2,U,96,75,Study,User,-,,Study/JOL,"Study Phase2",1901,,,-1,-1,,,,1
w10115108MN,sp7ounaorl,"Mediated JOLs",1,146,2024-01-24T23:26:35+00:00,2.586501121521,1,versionA_stim.csv,ReadVersion.csv,Read,Read1,RAKE,SEED,Study2,M,69,80,Study,User,-,,Study/JOL,"Study Phase2",2436,,,-1,-1,,,,1
w10115108MN,sp7ounaorl,"Mediated JOLs",1,147,2024-01-24T23:26:37+00:00,1.7507839202881,1,versionA_stim.csv,ReadVersion.csv,Read,Read1,CASH,LEG,Study2,U,105,86,Study,User,-,,Study/JOL,"Study Phase2",1598,,,-1,-1,,,,1
w10115108MN,sp7ounaorl,"Mediated JOLs",1,148,2024-01-24T23:26:40+00:00,2.8582210540771,1,versionA_stim.csv,ReadVersion.csv,Read,Read1,PANTS,COLLAR,Study2,M,63,78,Study,User,-,,Study/JOL,"Study Phase2",2713,,,-1,-1,,,,1
w10115108MN,sp7ounaorl,"Mediated JOLs",1,149,2024-01-24T23:26:41+00:00,1.5544800758362,1,versionA_stim.csv,ReadVersion.csv,Read,Read1,HEAVY,FEATHER,Study2,M,68,63,Study,User,-,,Study/JOL,"Study Phase2",1415,,,-1,-1,,,,1
w10115108MN,sp7ounaorl,"Mediated JOLs",1,150,2024-01-24T23:26:43+00:00,1.5358519554138,1,versionA_stim.csv,ReadVersion.csv,Read,Read1,BRIDGE,WATER,Study2,F,90,69,Study,User,-,,Study/JOL,"Study Phase2",1396,,,-1,-1,,,,1
w10115108MN,sp7ounaorl,"Mediated JOLs",1,151,2024-01-24T23:26:46+00:00,3.5238809585571,1,versionA_stim.csv,ReadVersion.csv,Read,Read1,HORNET,STING,Study2,F,85,90,Study,User,-,,Study/JOL,"Study Phase2",3374,,,-1,-1,,,,1
w10115108MN,sp7ounaorl,"Mediated JOLs",1,152,2024-01-24T23:26:49+00:00,2.2325489521027,1,versionA_stim.csv,ReadVersion.csv,Read,Read1,ARTERY,BRONZE,Study2,U,103,68,Study,User,-,,Study/JOL,"Study Phase2",2084,,,-1,-1,,,,1
w10115108MN,sp7ounaorl,"Mediated JOLs",1,153,2024-01-24T23:26:50+00:00,1.646919965744,1,versionA_stim.csv,ReadVersion.csv,Read,Read1,CACTUS,PLANT,Study2,F,76,84,Study,User,-,,Study/JOL,"Study Phase2",1500,,,-1,-1,,,,1
w10115108MN,sp7ounaorl,"Mediated JOLs",1,154,2024-01-24T23:26:52+00:00,1.736111164093,1,versionA_stim.csv,ReadVersion.csv,Read,Read1,MIRROR,CHILDREN,Study2,U,104,85,Study,User,-,,Study/JOL,"Study Phase2",1585,,,-1,-1,,,,1
w10115108MN,sp7ounaorl,"Mediated JOLs",1,155,2024-01-24T23:26:54+00:00,2.4688630104065,1,versionA_stim.csv,ReadVersion.csv,Read,Read1,LEASE,TOIL,Study2,U,101,82,Study,User,-,,Study/JOL,"Study Phase2",2323,,,-1,-1,,,,1
w10115108MN,sp7ounaorl,"Mediated JOLs",1,156,2024-01-24T23:26:56+00:00,1.5352339744568,1,versionA_stim.csv,ReadVersion.csv,Read,Read1,WASP,BUG,Study2,F,89,71,Study,User,-,,Study/JOL,"Study Phase2",1383,,,-1,-1,,,,1
w10115108MN,sp7ounaorl,"Mediated JOLs",1,157,2024-01-24T23:26:58+00:00,1.700777053833,1,versionA_stim.csv,ReadVersion.csv,Read,Read1,VALLEY,PEAK,Study2,M,73,81,Study,User,-,,Study/JOL,"Study Phase2",1549,,,-1,-1,,,,1
w10115108MN,sp7ounaorl,"Mediated JOLs",1,158,2024-01-24T23:27:00+00:00,2.219094991684,1,versionA_stim.csv,ReadVersion.csv,Read,Read1,TOOL,SHED,BUFFER3,Buffer,58,61,Study,User,-,,Study/JOL,BUFFER2,2072,,,-1,-1,,,,1
w10115108MN,sp7ounaorl,"Mediated JOLs",1,159,2024-01-24T23:27:02+00:00,2.0652120113373,1,versionA_stim.csv,ReadVersion.csv,Read,Read1,DAYS,WEAKS,BUFFER3,Buffer,56,59,Study,User,-,,Study/JOL,BUFFER2,1917,,,-1,-1,,,,1
w10115108MN,sp7ounaorl,"Mediated JOLs",1,160,2024-01-24T23:27:05+00:00,2.8005149364471,1,versionA_stim.csv,ReadVersion.csv,Read,Read1,SHERRIF,POLICE,BUFFER2,Buffer,52,56,Study,User,-,,Study/JOL,BUFFER2,2654,,,-1,-1,,,,1
w10115108MN,sp7ounaorl,"Mediated JOLs",1,161,2024-01-24T23:27:06+00:00,1.5365650653839,1,versionA_stim.csv,ReadVersion.csv,Read,Read1,THING,STUFF,BUFFER2,Buffer,55,54,Study,User,-,,Study/JOL,BUFFER2,1389,,,-1,-1,,,,1
w10115108MN,sp7ounaorl,"Mediated JOLs",1,162,2024-01-24T23:27:08+00:00,1.6842110157013,1,versionA_stim.csv,ReadVersion.csv,Read,Read1,ICE,FROZEN,BUFFER4,Buffer,109,109,Study,User,-,,Study/JOL,BUFFER2,1542,,,-1,-1,,,,1
w10115108MN,sp7ounaorl,"Mediated JOLs",1,163,2024-01-24T23:27:10+00:00,1.6789288520813,1,versionA_stim.csv,ReadVersion.csv,Read,Read1,,,,,,0,Instruct,User,-,"You have completed this section. Please press Enter.",Filler_Instruction,Instruct2,1531,,,-1,-1,,,,1
w10115108MN,sp7ounaorl,"Mediated JOLs",1,164,2024-01-24T23:29:12+00:00,122.52251601219,1,versionA_stim.csv,ReadVersion.csv,Read,Read1,,,,,,0,FreeRecall,120,120,"Please list the 50 US states in alphabetical order. The task will automatically advance to the next screen after two minutes.",,Filler1,120892,"alabama alaska arizona arkansas california colorado connecticut delaware florida georgia hawaii idaho iowa kentucky louisiana maine maryland massachusetts mississippi ",0,3377,97360,0,0,,0.986
w10115108MN,sp7ounaorl,"Mediated JOLs",1,165,2024-01-24T23:29:24+00:00,11.678122997284,1,versionA_stim.csv,ReadVersion.csv,Read,Read1,,,,,,0,Instruct,-,10,"You will now be presented with the first word from each of the previously studied item pairs. Please type the missing word. If you do not know the word, you may guess or press Enter to skip forward to the next pair.",,Instruct3,11274,,,-1,-1,,,,0.607
w10115108MN,sp7ounaorl,"Mediated JOLs",1,166,2024-01-24T23:29:32+00:00,7.7038509845734,1,versionA_stim.csv,ReadVersion.csv,Read,Read1,HORNET,STING,Study2,F,85,90,Test,User,-,,Recall,Recall2,6043,,0,2722,3090,0,0,,1
w10115108MN,sp7ounaorl,"Mediated JOLs",1,167,2024-01-24T23:29:35+00:00,3.1365461349487,1,versionA_stim.csv,ReadVersion.csv,Read,Read1,CHOP,CUT,Study2,F,77,92,Test,User,-,,Recall,Recall2,2923,,0,-1,-1,0,0,,1
w10115108MN,sp7ounaorl,"Mediated JOLs",1,168,2024-01-24T23:29:41+00:00,6.6661958694458,1,versionA_stim.csv,ReadVersion.csv,Read,Read1,FEUD,FIGHT,Study2,F,86,101,Test,User,-,,Recall,Recall2,6463,fight,100,5156,5604,1,1,,1
w10115108MN,sp7ounaorl,"Mediated JOLs",1,169,2024-01-24T23:29:43+00:00,1.6854519844055,1,versionA_stim.csv,ReadVersion.csv,Read,Read1,BLAZE,FIRE,Study2,F,81,83,Test,User,-,,Recall,Recall2,1541,,0,-1,-1,0,0,,1
w10115108MN,sp7ounaorl,"Mediated JOLs",1,170,2024-01-24T23:29:48+00:00,4.700581073761,1,versionA_stim.csv,ReadVersion.csv,Read,Read1,SOAP,DRINK,Study2,M,67,66,Test,User,-,,Recall,Recall2,4498,drink,100,3159,3709,1,1,,1
w10115108MN,sp7ounaorl,"Mediated JOLs",1,171,2024-01-24T23:29:50+00:00,1.8766939640045,1,versionA_stim.csv,ReadVersion.csv,Read,Read1,BOTH,OUNCE,Study2,U,102,64,Test,User,-,,Recall,Recall2,1734,,0,-1,-1,0,0,,1
w10115108MN,sp7ounaorl,"Mediated JOLs",1,172,2024-01-24T23:29:52+00:00,2.075443983078,1,versionA_stim.csv,ReadVersion.csv,Read,Read1,DIETARY,SACK,Study2,U,97,105,Test,User,-,,Recall,Recall2,1937,,0,-1,-1,0,0,,1
w10115108MN,sp7ounaorl,"Mediated JOLs",1,173,2024-01-24T23:29:54+00:00,2.2683880329132,1,versionA_stim.csv,ReadVersion.csv,Read,Read1,SCHOOL,STOP,Study2,M,62,95,Test,User,-,,Recall,Recall2,2131,,0,-1,-1,0,0,,1
w10115108MN,sp7ounaorl,"Mediated JOLs",1,174,2024-01-24T23:29:58+00:00,4.3990180492401,1,versionA_stim.csv,ReadVersion.csv,Read,Read1,LEAGUE,BASEBALL,Study2,F,84,74,Test,User,-,,Recall,Recall2,4203,baseball,100,2482,3400,1,1,,1
w10115108MN,sp7ounaorl,"Mediated JOLs",1,175,2024-01-24T23:30:02+00:00,3.983738899231,1,versionA_stim.csv,ReadVersion.csv,Read,Read1,CHISEL,HAMMER,Study2,F,78,72,Test,User,-,,Recall,Recall2,3818,hammer,100,2282,2867,1,1,,1
w10115108MN,sp7ounaorl,"Mediated JOLs",1,176,2024-01-24T23:30:07+00:00,4.8870120048523,1,versionA_stim.csv,ReadVersion.csv,Read,Read1,RAKE,SEED,Study2,M,69,80,Test,User,-,,Recall,Recall2,4699,seed,100,2463,3729,1,1,,1
w10115108MN,sp7ounaorl,"Mediated JOLs",1,177,2024-01-24T23:30:11+00:00,3.2865090370178,1,versionA_stim.csv,ReadVersion.csv,Read,Read1,INCENSE,SMELL,Study2,F,83,99,Test,User,-,,Recall,Recall2,3122,smell,100,1937,2403,1,1,,1
w10115108MN,sp7ounaorl,"Mediated JOLs",1,178,2024-01-24T23:30:12+00:00,1.7876899242401,1,versionA_stim.csv,ReadVersion.csv,Read,Read1,KING,VASE,Study2,U,91,77,Test,User,-,,Recall,Recall2,1658,,0,-1,-1,0,0,,1
w10115108MN,sp7ounaorl,"Mediated JOLs",1,179,2024-01-24T23:30:16+00:00,3.7000570297241,1,versionA_stim.csv,ReadVersion.csv,Read,Read1,SICK,HIDE,Study2,U,100,70,Test,User,-,,Recall,Recall2,3560,,0,-1,-1,0,0,,1
w10115108MN,sp7ounaorl,"Mediated JOLs",1,180,2024-01-24T23:30:18+00:00,1.9991891384125,1,versionA_stim.csv,ReadVersion.csv,Read,Read1,WINDOW,KNOB,Study2,M,74,88,Test,User,-,,Recall,Recall2,1853,,0,-1,-1,0,0,,1
w10115108MN,sp7ounaorl,"Mediated JOLs",1,181,2024-01-24T23:30:22+00:00,3.9645550251007,1,versionA_stim.csv,ReadVersion.csv,Read,Read1,HAPPY,CAR,Study2,U,92,73,Test,User,-,,Recall,Recall2,3822,,0,-1,-1,0,0,,1
w10115108MN,sp7ounaorl,"Mediated JOLs",1,182,2024-01-24T23:30:26+00:00,4.0832159519196,1,versionA_stim.csv,ReadVersion.csv,Read,Read1,CHILL,COLD,Study2,F,87,65,Test,User,-,,Recall,Recall2,3906,cold,100,2733,3038,1,1,,1
w10115108MN,sp7ounaorl,"Mediated JOLs",1,183,2024-01-24T23:30:33+00:00,7.2597570419312,1,versionA_stim.csv,ReadVersion.csv,Read,Read1,SUMMER,SNOW,Study2,M,61,94,Test,User,-,,Recall,Recall2,7069,snow,100,4366,5117,1,1,,1
w10115108MN,sp7ounaorl,"Mediated JOLs",1,184,2024-01-24T23:30:37+00:00,3.4064660072327,1,versionA_stim.csv,ReadVersion.csv,Read,Read1,CHERRY,RED,Study2,F,80,97,Test,User,-,,Recall,Recall2,3239,red,100,2068,2368,1,1,,1
w10115108MN,sp7ounaorl,"Mediated JOLs",1,185,2024-01-24T23:30:39+00:00,1.9508008956909,1,versionA_stim.csv,ReadVersion.csv,Read,Read1,ATTIRE,CLOTHES,Study2,F,79,106,Test,User,-,,Recall,Recall2,1812,,0,-1,-1,0,0,,1
w10115108MN,sp7ounaorl,"Mediated JOLs",1,186,2024-01-24T23:30:44+00:00,5.0904400348663,1,versionA_stim.csv,ReadVersion.csv,Read,Read1,GRILL,THIGH,Study2,M,72,79,Test,User,-,,Recall,Recall2,4907,thigh,100,2305,2871,1,1,,1
w10115108MN,sp7ounaorl,"Mediated JOLs",1,187,2024-01-24T23:30:50+00:00,6.2485809326172,1,versionA_stim.csv,ReadVersion.csv,Read,Read1,TRAP,CAVE,Study2,M,70,96,Test,User,-,,Recall,Recall2,6079,,0,-1,-1,0,0,,1
w10115108MN,sp7ounaorl,"Mediated JOLs",1,188,2024-01-24T23:30:53+00:00,2.6033999919891,1,versionA_stim.csv,ReadVersion.csv,Read,Read1,SUGAR,RIDDLE,Study2,U,95,103,Test,User,-,,Recall,Recall2,2451,,0,-1,-1,0,0,,1
w10115108MN,sp7ounaorl,"Mediated JOLs",1,189,2024-01-24T23:30:57+00:00,4.6383910179138,1,versionA_stim.csv,ReadVersion.csv,Read,Read1,DOCUMENT,PAPER,Study2,F,82,67,Test,User,-,,Recall,Recall2,4441,paper,100,2889,3527,1,1,,1
w10115108MN,sp7ounaorl,"Mediated JOLs",1,190,2024-01-24T23:31:00+00:00,2.3858480453491,1,versionA_stim.csv,ReadVersion.csv,Read,Read1,OVEN,BASKET,Study2,M,71,98,Test,User,-,,Recall,Recall2,2254,,0,-1,-1,0,0,,1
w10115108MN,sp7ounaorl,"Mediated JOLs",1,191,2024-01-24T23:31:03+00:00,3.7319769859314,1,versionA_stim.csv,ReadVersion.csv,Read,Read1,REALITY,ISLAND,Study2,M,64,62,Test,User,-,,Recall,Recall2,3587,,0,-1,-1,0,0,,1
w10115108MN,sp7ounaorl,"Mediated JOLs",1,192,2024-01-24T23:31:05+00:00,1.6995809078217,1,versionA_stim.csv,ReadVersion.csv,Read,Read1,EYES,SMELL,Study2,M,65,100,Test,User,-,,Recall,Recall2,1557,,0,-1,-1,0,0,,1
w10115108MN,sp7ounaorl,"Mediated JOLs",1,193,2024-01-24T23:31:08+00:00,2.740795135498,1,versionA_stim.csv,ReadVersion.csv,Read,Read1,LEASE,TOIL,Study2,U,101,82,Test,User,-,,Recall,Recall2,2602,,0,-1,-1,0,0,,1
w10115108MN,sp7ounaorl,"Mediated JOLs",1,194,2024-01-24T23:31:14+00:00,5.7599220275879,1,versionA_stim.csv,ReadVersion.csv,Read,Read1,BENCH,HORN,Study2,U,98,102,Test,User,-,,Recall,Recall2,3718,,0,-1,-1,0,0,,1
w10115108MN,sp7ounaorl,"Mediated JOLs",1,195,2024-01-24T23:32:12+00:00,58.154188871384,1,versionA_stim.csv,ReadVersion.csv,Read,Read1,VALLEY,PEAK,Study2,M,73,81,Test,User,-,,Recall,Recall2,57246,,0,-1,-1,0,0,,1
w10115108MN,sp7ounaorl,"Mediated JOLs",1,196,2024-01-24T23:32:17+00:00,5.0101900100708,1,versionA_stim.csv,ReadVersion.csv,Read,Read1,WASP,BUG,Study2,F,89,71,Test,User,-,,Recall,Recall2,4794,bug,100,3625,3908,1,1,,1
w10115108MN,sp7ounaorl,"Mediated JOLs",1,197,2024-01-24T23:32:24+00:00,6.9085340499878,1,versionA_stim.csv,ReadVersion.csv,Read,Read1,HEAVY,FEATHER,Study2,M,68,63,Test,User,-,,Recall,Recall2,6043,feather,100,3907,5172,1,1,,1
w10115108MN,sp7ounaorl,"Mediated JOLs",1,198,2024-01-24T23:32:28+00:00,4.6282179355621,1,versionA_stim.csv,ReadVersion.csv,Read,Read1,DEATH,BUSINESS,Study2,U,99,91,Test,User,-,,Recall,Recall2,4437,,0,-1,-1,0,0,,1
w10115108MN,sp7ounaorl,"Mediated JOLs",1,199,2024-01-24T23:32:32+00:00,3.9555859565735,1,versionA_stim.csv,ReadVersion.csv,Read,Read1,ART,WOLF,Study2,U,93,104,Test,User,-,,Recall,Recall2,3814,,0,-1,-1,0,0,,1
w10115108MN,sp7ounaorl,"Mediated JOLs",1,200,2024-01-24T23:32:39+00:00,6.8396542072296,1,versionA_stim.csv,ReadVersion.csv,Read,Read1,BRIDGE,WATER,Study2,F,90,69,Test,User,-,,Recall,Recall2,5372,water,100,2162,2694,1,1,,1
w10115108MN,sp7ounaorl,"Mediated JOLs",1,201,2024-01-24T23:32:45+00:00,5.9172477722168,1,versionA_stim.csv,ReadVersion.csv,Read,Read1,HERD,COW,Study2,F,88,93,Test,User,-,,Recall,Recall2,5727,,0,-1,-1,0,0,,1
w10115108MN,sp7ounaorl,"Mediated JOLs",1,202,2024-01-24T23:32:49+00:00,4.1176850795746,1,versionA_stim.csv,ReadVersion.csv,Read,Read1,NURSE,LAWYER,Study2,M,66,87,Test,User,-,,Recall,Recall2,3909,lawyer,100,2258,3090,1,1,,1
w10115108MN,sp7ounaorl,"Mediated JOLs",1,203,2024-01-24T23:32:53+00:00,3.9451479911804,1,versionA_stim.csv,ReadVersion.csv,Read,Read1,PANTS,COLLAR,Study2,M,63,78,Test,User,-,,Recall,Recall2,3787,collar,100,2234,2891,1,1,,1
w10115108MN,sp7ounaorl,"Mediated JOLs",1,204,2024-01-24T23:32:57+00:00,3.7300250530243,1,versionA_stim.csv,ReadVersion.csv,Read,Read1,MIRROR,CHILDREN,Study2,U,104,85,Test,User,-,,Recall,Recall2,3594,,0,-1,-1,0,0,,1
w10115108MN,sp7ounaorl,"Mediated JOLs",1,205,2024-01-24T23:33:04+00:00,6.7831521034241,1,versionA_stim.csv,ReadVersion.csv,Read,Read1,ARTERY,BRONZE,Study2,U,103,68,Test,User,-,,Recall,Recall2,6588,,0,-1,-1,0,0,,1
w10115108MN,sp7ounaorl,"Mediated JOLs",1,206,2024-01-24T23:33:06+00:00,2.4217238426208,1,versionA_stim.csv,ReadVersion.csv,Read,Read1,PUSH,CLUTTER,Study2,U,96,75,Test,User,-,,Recall,Recall2,2280,,0,-1,-1,0,0,,1
w10115108MN,sp7ounaorl,"Mediated JOLs",1,207,2024-01-24T23:33:19+00:00,12.911752939224,1,versionA_stim.csv,ReadVersion.csv,Read,Read1,RAZOR,MUSCLE,Study2,M,75,89,Test,User,-,,Recall,Recall2,12335,,0,-1,-1,0,0,,1
w10115108MN,sp7ounaorl,"Mediated JOLs",1,208,2024-01-24T23:33:23+00:00,3.8207900524139,1,versionA_stim.csv,ReadVersion.csv,Read,Read1,CACTUS,PLANT,Study2,F,76,84,Test,User,-,,Recall,Recall2,3642,plant,100,2228,2759,1,1,,1
w10115108MN,sp7ounaorl,"Mediated JOLs",1,209,2024-01-24T23:33:26+00:00,2.9459331035614,1,versionA_stim.csv,ReadVersion.csv,Read,Read1,STRONG,ACCIDENT,Study2,U,94,76,Test,User,-,,Recall,Recall2,2806,,0,-1,-1,0,0,,1
w10115108MN,sp7ounaorl,"Mediated JOLs",1,210,2024-01-24T23:33:31+00:00,5.7116830348969,1,versionA_stim.csv,ReadVersion.csv,Read,Read1,CASH,LEG,Study2,U,105,86,Test,User,-,,Recall,Recall2,5143,,0,-1,-1,0,0,,1
w10115108MN,sp7ounaorl,"Mediated JOLs",1,211,2024-01-24T23:33:33+00:00,1.649139881134,1,versionA_stim.csv,ReadVersion.csv,Read,Read1,,,,,,0,Instruct,User,-,"You have completed this section. Please press Enter.",,Instruct7,1495,,,-1,-1,,,,1
w10115108MN,sp7ounaorl,"Mediated JOLs",1,212,2024-01-24T23:33:39+00:00,5.4682610034943,1,versionA_stim.csv,ReadVersion.csv,Read,Read1,,,,,,0,Instruct,User,-,"The following screen will ask you a few questions abour your experience today. You must complete these questions to receive credit.",,Instruct8,3223,,,-1,-1,,,,1
