Username,ID,ExperimentName,Session,Trial,Date,TimeDif,"Condition Number","Stimuli File","Order File","Condition Description","Condition Notes",Stimuli*Cue,Stimuli*Answer,Stimuli*Shuffle,"Stimuli*Stimuli Notes",Stimuli*Value,Procedure*Item,"Procedure*Trial Type","Procedure*Max Time","Procedure*Min Time",Procedure*Text,"Procedure*Procedure Notes",Procedure*Shuffle,Response*RT,Response*Response,Response*Accuracy,Response*RTfirst,Response*RTlast,Response*strictAcc,Response*lenientAcc,Response*focus,Response*Focus
w10159057_afm,oeu89sirdj,"Mediated JOLs",1,1,2024-03-07T05:33:24+00:00,5.7291829586029,1,versionA_stim.csv,ReadVersion.csv,Read,Read1,,,,,,0,Instruct,-,5,"In this section, you will be presented with a series of word pairs. Please study each word pair! Your memory will be tested!",Initial_Instruct,Instruct1,5626,,,-1,-1,,,,1
w10159057_afm,oeu89sirdj,"Mediated JOLs",1,2,2024-03-07T05:33:26+00:00,2.1046259403229,1,versionA_stim.csv,ReadVersion.csv,Read,Read1,,,,,,0,Instruct,User,-,"You will now begin. Press Enter when you are ready to begin.",,Instruct16,1979,,,-1,-1,,,,1
w10159057_afm,oeu89sirdj,"Mediated JOLs",1,3,2024-03-07T05:33:28+00:00,2.3649301528931,1,versionA_stim.csv,ReadVersion.csv,Read,Read1,TREES,GREEN,BUFFER1,Buffer,1,6,Study,User,-,,Study/JOL,BUFFER,2250,,,-1,-1,,,,1
w10159057_afm,oeu89sirdj,"Mediated JOLs",1,4,2024-03-07T05:33:30+00:00,1.5226969718933,1,versionA_stim.csv,ReadVersion.csv,Read,Read1,SPACE,JAM,BUFFER1,Buffer,5,4,Study,User,-,,Study/JOL,BUFFER,1414,,,-1,-1,,,,1
w10159057_afm,oeu89sirdj,"Mediated JOLs",1,5,2024-03-07T05:33:31+00:00,1.4950160980225,1,versionA_stim.csv,ReadVersion.csv,Read,Read1,PITCHER,CATCHER,BUFFER1,Buffer,2,2,Study,User,-,,Study/JOL,BUFFER,1370,,,-1,-1,,,,1
w10159057_afm,oeu89sirdj,"Mediated JOLs",1,6,2024-03-07T05:33:33+00:00,1.6667339801788,1,versionA_stim.csv,ReadVersion.csv,Read,Read1,SCARE,FRIGHT,BUFFER1,Buffer,4,3,Study,User,-,,Study/JOL,BUFFER,1553,,,-1,-1,,,,1
w10159057_afm,oeu89sirdj,"Mediated JOLs",1,7,2024-03-07T05:33:34+00:00,1.1334838867188,1,versionA_stim.csv,ReadVersion.csv,Read,Read1,PEANUT,BUTTER,BUFFER1,Buffer,3,5,Study,User,-,,Study/JOL,BUFFER,1020,,,-1,-1,,,,1
w10159057_afm,oeu89sirdj,"Mediated JOLs",1,8,2024-03-07T05:33:35+00:00,1.2978730201721,1,versionA_stim.csv,ReadVersion.csv,Read,Read1,HARD,COTTON,Study1,M,20,47,Study,User,-,,Study/JOL,"Study Phase",1187,,,-1,-1,,,,1
w10159057_afm,oeu89sirdj,"Mediated JOLs",1,9,2024-03-07T05:33:38+00:00,2.85213804245,1,versionA_stim.csv,ReadVersion.csv,Read,Read1,MIRROR,MAROON,Study1,U,36,17,Study,User,-,,Study/JOL,"Study Phase",2741,,,-1,-1,,,,1
w10159057_afm,oeu89sirdj,"Mediated JOLs",1,10,2024-03-07T05:33:40+00:00,1.720223903656,1,versionA_stim.csv,ReadVersion.csv,Read,Read1,HYGIENE,CLEAN,Study1,F,28,23,Study,User,-,,Study/JOL,"Study Phase",1520,,,-1,-1,,,,1
w10159057_afm,oeu89sirdj,"Mediated JOLs",1,11,2024-03-07T05:33:42+00:00,1.790766954422,1,versionA_stim.csv,ReadVersion.csv,Read,Read1,STRETCH,CLOTH,Study1,U,37,46,Study,User,-,,Study/JOL,"Study Phase",1529,,,-1,-1,,,,1
w10159057_afm,oeu89sirdj,"Mediated JOLs",1,12,2024-03-07T05:33:43+00:00,1.2581632137299,1,versionA_stim.csv,ReadVersion.csv,Read,Read1,CEILING,CARPET,Study1,M,15,31,Study,User,-,,Study/JOL,"Study Phase",1147,,,-1,-1,,,,1
w10159057_afm,oeu89sirdj,"Mediated JOLs",1,13,2024-03-07T05:33:44+00:00,0.98743677139282,1,versionA_stim.csv,ReadVersion.csv,Read,Read1,SIP,DRINK,Study1,F,32,14,Study,User,-,,Study/JOL,"Study Phase",880,,,-1,-1,,,,1
w10159057_afm,oeu89sirdj,"Mediated JOLs",1,14,2024-03-07T05:33:45+00:00,1.2423610687256,1,versionA_stim.csv,ReadVersion.csv,Read,Read1,BAT,BOUNCE,Study1,M,12,40,Study,User,-,,Study/JOL,"Study Phase",1132,,,-1,-1,,,,1
w10159057_afm,oeu89sirdj,"Mediated JOLs",1,15,2024-03-07T05:33:47+00:00,2.125559091568,1,versionA_stim.csv,ReadVersion.csv,Read,Read1,ORCHID,FLOWER,Study1,F,34,21,Study,User,-,,Study/JOL,"Study Phase",2014,,,-1,-1,,,,1
w10159057_afm,oeu89sirdj,"Mediated JOLs",1,16,2024-03-07T05:33:48+00:00,1.1901710033417,1,versionA_stim.csv,ReadVersion.csv,Read,Read1,SIGN,TICK,Study1,U,47,39,Study,User,-,,Study/JOL,"Study Phase",1079,,,-1,-1,,,,1
w10159057_afm,oeu89sirdj,"Mediated JOLs",1,17,2024-03-07T05:33:50+00:00,1.7464890480042,1,versionA_stim.csv,ReadVersion.csv,Read,Read1,SOON,BELT,Study1,U,46,20,Study,User,-,,Study/JOL,"Study Phase",1636,,,-1,-1,,,,1
w10159057_afm,oeu89sirdj,"Mediated JOLs",1,18,2024-03-07T05:33:52+00:00,1.353325843811,1,versionA_stim.csv,ReadVersion.csv,Read,Read1,VEHICLE,CHARM,Study1,U,40,16,Study,User,-,,Study/JOL,"Study Phase",1245,,,-1,-1,,,,1
w10159057_afm,oeu89sirdj,"Mediated JOLs",1,19,2024-03-07T05:33:54+00:00,2.3828949928284,1,versionA_stim.csv,ReadVersion.csv,Read,Read1,WAR,QUIET,Study1,M,8,35,Study,User,-,,Study/JOL,"Study Phase",2272,,,-1,-1,,,,1
w10159057_afm,oeu89sirdj,"Mediated JOLs",1,20,2024-03-07T05:33:56+00:00,2.3220911026001,1,versionA_stim.csv,ReadVersion.csv,Read,Read1,CIRCLE,DANCE,Study1,M,13,24,Study,User,-,,Study/JOL,"Study Phase",2202,,,-1,-1,,,,1
w10159057_afm,oeu89sirdj,"Mediated JOLs",1,21,2024-03-07T05:33:57+00:00,1.1401429176331,1,versionA_stim.csv,ReadVersion.csv,Read,Read1,HORSE,WHEEL,Study1,M,14,37,Study,User,-,,Study/JOL,"Study Phase",1034,,,-1,-1,,,,1
w10159057_afm,oeu89sirdj,"Mediated JOLs",1,22,2024-03-07T05:33:59+00:00,2.0350360870361,1,versionA_stim.csv,ReadVersion.csv,Read,Read1,KEYS,ROD,Study1,U,45,33,Study,User,-,,Study/JOL,"Study Phase",1919,,,-1,-1,,,,1
w10159057_afm,oeu89sirdj,"Mediated JOLs",1,23,2024-03-07T05:34:02+00:00,2.0665788650513,1,versionA_stim.csv,ReadVersion.csv,Read,Read1,SHELL,SHAKE,Study1,U,43,13,Study,User,-,,Study/JOL,"Study Phase",1957,,,-1,-1,,,,1
w10159057_afm,oeu89sirdj,"Mediated JOLs",1,24,2024-03-07T05:34:03+00:00,1.0928711891174,1,versionA_stim.csv,ReadVersion.csv,Read,Read1,AFFECTION,LOVE,Study1,F,31,42,Study,User,-,,Study/JOL,"Study Phase",973,,,-1,-1,,,,1
w10159057_afm,oeu89sirdj,"Mediated JOLs",1,25,2024-03-07T05:34:04+00:00,0.97877979278564,1,versionA_stim.csv,ReadVersion.csv,Read,Read1,WEDDING,FINGER,Study1,M,17,29,Study,User,-,,Study/JOL,"Study Phase",863,,,-1,-1,,,,1
w10159057_afm,oeu89sirdj,"Mediated JOLs",1,26,2024-03-07T05:34:05+00:00,0.99808621406555,1,versionA_stim.csv,ReadVersion.csv,Read,Read1,TREE,SYRUP,Study1,M,11,12,Study,User,-,,Study/JOL,"Study Phase",888,,,-1,-1,,,,1
w10159057_afm,oeu89sirdj,"Mediated JOLs",1,27,2024-03-07T05:34:06+00:00,0.99908995628357,1,versionA_stim.csv,ReadVersion.csv,Read,Read1,MAZE,PHONE,Study1,U,42,48,Study,User,-,,Study/JOL,"Study Phase",887,,,-1,-1,,,,1
w10159057_afm,oeu89sirdj,"Mediated JOLs",1,28,2024-03-07T05:34:06+00:00,0.68562889099121,1,versionA_stim.csv,ReadVersion.csv,Read,Read1,CREDIT,CARD,Study1,F,33,43,Study,User,-,,Study/JOL,"Study Phase",574,,,-1,-1,,,,1
w10159057_afm,oeu89sirdj,"Mediated JOLs",1,29,2024-03-07T05:34:07+00:00,0.86460995674133,1,versionA_stim.csv,ReadVersion.csv,Read,Read1,DAY,DARK,Study1,M,18,27,Study,User,-,,Study/JOL,"Study Phase",753,,,-1,-1,,,,1
w10159057_afm,oeu89sirdj,"Mediated JOLs",1,30,2024-03-07T05:34:08+00:00,0.54483318328857,1,versionA_stim.csv,ReadVersion.csv,Read,Read1,MULE,DONKEY,Study1,F,30,8,Study,User,-,,Study/JOL,"Study Phase",421,,,-1,-1,,,,1
w10159057_afm,oeu89sirdj,"Mediated JOLs",1,31,2024-03-07T05:34:09+00:00,1.2849798202515,1,versionA_stim.csv,ReadVersion.csv,Read,Read1,TEMPERATURE,MORNING,Study1,U,48,7,Study,User,-,,Study/JOL,"Study Phase",1179,,,-1,-1,,,,1
w10159057_afm,oeu89sirdj,"Mediated JOLs",1,32,2024-03-07T05:34:10+00:00,0.70121812820435,1,versionA_stim.csv,ReadVersion.csv,Read,Read1,NAP,SLEEP,Study1,F,29,45,Study,User,-,,Study/JOL,"Study Phase",591,,,-1,-1,,,,1
w10159057_afm,oeu89sirdj,"Mediated JOLs",1,33,2024-03-07T05:34:10+00:00,0.78364086151123,1,versionA_stim.csv,ReadVersion.csv,Read,Read1,SCALP,HEAD,Study1,F,23,41,Study,User,-,,Study/JOL,"Study Phase",671,,,-1,-1,,,,1
w10159057_afm,oeu89sirdj,"Mediated JOLs",1,34,2024-03-07T05:34:11+00:00,0.77685117721558,1,versionA_stim.csv,ReadVersion.csv,Read,Read1,WAGE,MONEY,Study1,F,22,11,Study,User,-,,Study/JOL,"Study Phase",672,,,-1,-1,,,,1
w10159057_afm,oeu89sirdj,"Mediated JOLs",1,35,2024-03-07T05:34:12+00:00,0.77580094337463,1,versionA_stim.csv,ReadVersion.csv,Read,Read1,GIVE,STEAK,Study1,U,38,49,Study,User,-,,Study/JOL,"Study Phase",666,,,-1,-1,,,,1
w10159057_afm,oeu89sirdj,"Mediated JOLs",1,36,2024-03-07T05:34:13+00:00,0.8482129573822,1,versionA_stim.csv,ReadVersion.csv,Read,Read1,FUZZY,BANG,Study1,U,50,30,Study,User,-,,Study/JOL,"Study Phase",739,,,-1,-1,,,,1
w10159057_afm,oeu89sirdj,"Mediated JOLs",1,37,2024-03-07T05:34:14+00:00,0.85961008071899,1,versionA_stim.csv,ReadVersion.csv,Read,Read1,MULE,DONKEY,Study1,F,24,19,Study,User,-,,Study/JOL,"Study Phase",750,,,-1,-1,,,,1
w10159057_afm,oeu89sirdj,"Mediated JOLs",1,38,2024-03-07T05:34:14+00:00,0.76393985748291,1,versionA_stim.csv,ReadVersion.csv,Read,Read1,WORD,SENTENCE,Study1,F,27,26,Study,User,-,,Study/JOL,"Study Phase",658,,,-1,-1,,,,1
w10159057_afm,oeu89sirdj,"Mediated JOLs",1,39,2024-03-07T05:34:15+00:00,0.91835498809814,1,versionA_stim.csv,ReadVersion.csv,Read,Read1,CRY,BOTTLE,Study1,M,16,32,Study,User,-,,Study/JOL,"Study Phase",811,,,-1,-1,,,,1
w10159057_afm,oeu89sirdj,"Mediated JOLs",1,40,2024-03-07T05:34:16+00:00,0.84323501586914,1,versionA_stim.csv,ReadVersion.csv,Read,Read1,CAKE,HAND,Study1,U,49,25,Study,User,-,,Study/JOL,"Study Phase",734,,,-1,-1,,,,1
w10159057_afm,oeu89sirdj,"Mediated JOLs",1,41,2024-03-07T05:34:17+00:00,1.1000921726227,1,versionA_stim.csv,ReadVersion.csv,Read,Read1,ROUGH,SILK,Study1,M,10,18,Study,User,-,,Study/JOL,"Study Phase",986,,,-1,-1,,,,1
w10159057_afm,oeu89sirdj,"Mediated JOLs",1,42,2024-03-07T05:34:18+00:00,1.0940959453583,1,versionA_stim.csv,ReadVersion.csv,Read,Read1,SWAN,BIRD,Study1,F,26,36,Study,User,-,,Study/JOL,"Study Phase",984,,,-1,-1,,,,1
w10159057_afm,oeu89sirdj,"Mediated JOLs",1,43,2024-03-07T05:34:19+00:00,1.0235528945923,1,versionA_stim.csv,ReadVersion.csv,Read,Read1,BEACH,BOX,Study1,M,7,28,Study,User,-,,Study/JOL,"Study Phase",907,,,-1,-1,,,,1
w10159057_afm,oeu89sirdj,"Mediated JOLs",1,44,2024-03-07T05:34:20+00:00,1.0314581394196,1,versionA_stim.csv,ReadVersion.csv,Read,Read1,LITTER,TRASH,Study1,F,21,9,Study,User,-,,Study/JOL,"Study Phase",919,,,-1,-1,,,,1
w10159057_afm,oeu89sirdj,"Mediated JOLs",1,45,2024-03-07T05:34:22+00:00,1.0439519882202,1,versionA_stim.csv,ReadVersion.csv,Read,Read1,LISTEN,FICTION,Study1,U,44,34,Study,User,-,,Study/JOL,"Study Phase",931,,,-1,-1,,,,1
w10159057_afm,oeu89sirdj,"Mediated JOLs",1,46,2024-03-07T05:34:23+00:00,1.0695328712463,1,versionA_stim.csv,ReadVersion.csv,Read,Read1,CRACKLE,ELECTION,Study1,U,39,50,Study,User,-,,Study/JOL,"Study Phase",957,,,-1,-1,,,,1
w10159057_afm,oeu89sirdj,"Mediated JOLs",1,47,2024-03-07T05:34:24+00:00,1.0705809593201,1,versionA_stim.csv,ReadVersion.csv,Read,Read1,BIRTHDAY,PIE,Study1,M,9,51,Study,User,-,,Study/JOL,"Study Phase",952,,,-1,-1,,,,1
w10159057_afm,oeu89sirdj,"Mediated JOLs",1,48,2024-03-07T05:34:25+00:00,1.0084230899811,1,versionA_stim.csv,ReadVersion.csv,Read,Read1,MEAT,KEYS,Study1,U,41,44,Study,User,-,,Study/JOL,"Study Phase",899,,,-1,-1,,,,1
w10159057_afm,oeu89sirdj,"Mediated JOLs",1,49,2024-03-07T05:34:26+00:00,1.7720549106598,1,versionA_stim.csv,ReadVersion.csv,Read,Read1,TUNA,FISH,Study1,F,35,22,Study,User,-,,Study/JOL,"Study Phase",1652,,,-1,-1,,,,1
w10159057_afm,oeu89sirdj,"Mediated JOLs",1,50,2024-03-07T05:34:27+00:00,0.94719505310059,1,versionA_stim.csv,ReadVersion.csv,Read,Read1,LION,STRIPES,Study1,M,6,10,Study,User,-,,Study/JOL,"Study Phase",839,,,-1,-1,,,,1
w10159057_afm,oeu89sirdj,"Mediated JOLs",1,51,2024-03-07T05:34:28+00:00,1.0677771568298,1,versionA_stim.csv,ReadVersion.csv,Read,Read1,TOOTH,HAIR,Study1,M,19,15,Study,User,-,,Study/JOL,"Study Phase",950,,,-1,-1,,,,1
w10159057_afm,oeu89sirdj,"Mediated JOLs",1,52,2024-03-07T05:34:30+00:00,1.0674068927765,1,versionA_stim.csv,ReadVersion.csv,Read,Read1,ROOT,PLANT,Study1,F,25,38,Study,User,-,,Study/JOL,"Study Phase",959,,,-1,-1,,,,1
w10159057_afm,oeu89sirdj,"Mediated JOLs",1,53,2024-03-07T05:34:31+00:00,0.98443388938904,1,versionA_stim.csv,ReadVersion.csv,Read,Read1,OCTOBER,SPOOKY,BUFFER3,Buffer,60,58,Study,User,-,,Study/JOL,BUFFER2,873,,,-1,-1,,,,1
w10159057_afm,oeu89sirdj,"Mediated JOLs",1,54,2024-03-07T05:34:32+00:00,1.0179960727692,1,versionA_stim.csv,ReadVersion.csv,Read,Read1,MOON,SPACE,BUFFER2,Buffer,54,55,Study,User,-,,Study/JOL,BUFFER2,904,,,-1,-1,,,,1
w10159057_afm,oeu89sirdj,"Mediated JOLs",1,55,2024-03-07T05:34:32+00:00,0.68440413475037,1,versionA_stim.csv,ReadVersion.csv,Read,Read1,SPRING,MARCH,BUFFER3,Buffer,59,61,Study,User,-,,Study/JOL,BUFFER2,572,,,-1,-1,,,,1
w10159057_afm,oeu89sirdj,"Mediated JOLs",1,56,2024-03-07T05:34:35+00:00,2.9991979598999,1,versionA_stim.csv,ReadVersion.csv,Read,Read1,MONTH,YEAR,BUFFER3,Buffer,57,57,Study,User,-,,Study/JOL,BUFFER2,2892,,,-1,-1,,,,1
w10159057_afm,oeu89sirdj,"Mediated JOLs",1,57,2024-03-07T05:34:36+00:00,0.85006904602051,1,versionA_stim.csv,ReadVersion.csv,Read,Read1,DAYS,WEAKS,BUFFER3,Buffer,56,59,Study,User,-,,Study/JOL,BUFFER2,738,,,-1,-1,,,,1
w10159057_afm,oeu89sirdj,"Mediated JOLs",1,58,2024-03-07T05:34:38+00:00,2.4340128898621,1,versionA_stim.csv,ReadVersion.csv,Read,Read1,,,,,,0,Instruct,User,-,"You have completed this section. Please press Enter.",Filler_Instruction,Instruct2,2328,,,-1,-1,,,,1
w10159057_afm,oeu89sirdj,"Mediated JOLs",1,59,2024-03-07T05:36:39+00:00,120.23282003403,1,versionA_stim.csv,ReadVersion.csv,Read,Read1,,,,,,0,FreeRecall,120,120,"Please list the 50 US states in alphabetical order. The task will automatically advance to the next screen after two minutes.",,Filler1,120009,"AL|Alabama AK|Alaska AZ|Arizona AR|Arkansas CA|California CO|Colorado CT|Connecticut DE|Delaware FL|Florida GA|Georgia HI|Hawaii ID|Idaho IL|Illinois IN|Indiana IA|Iowa KS|Kansas KY|Kentucky LA|Louisiana ME|Maine MD|Maryland MA|Massachusetts MI|Michigan MN|Minnesota MS|Mississippi MO|Missouri MT|Montana NE|Nebraska NV ",0,108198,109877,0,0,,0.979
w10159057_afm,oeu89sirdj,"Mediated JOLs",1,60,2024-03-07T05:36:50+00:00,10.881041049957,1,versionA_stim.csv,ReadVersion.csv,Read,Read1,,,,,,0,Instruct,-,10,"You will now be presented with the first word from each of the previously studied item pairs. Please type the missing word. If you do not know the word, you may guess or press Enter to skip forward to the next pair.",,Instruct3,10711,,,-1,-1,,,,1
w10159057_afm,oeu89sirdj,"Mediated JOLs",1,61,2024-03-07T05:36:59+00:00,9.7490849494934,1,versionA_stim.csv,ReadVersion.csv,Read,Read1,WAR,QUIET,Study1,M,8,35,Test,User,-,,Recall,Recall1,9586,Quiet,100,4017,8977,1,1,,1
w10159057_afm,oeu89sirdj,"Mediated JOLs",1,62,2024-03-07T05:37:03+00:00,3.4429259300232,1,versionA_stim.csv,ReadVersion.csv,Read,Read1,GIVE,STEAK,Study1,U,38,49,Test,User,-,,Recall,Recall1,3257,Take,66.666666666667,1749,2831,0,0,,1
w10159057_afm,oeu89sirdj,"Mediated JOLs",1,63,2024-03-07T05:37:07+00:00,3.8887391090393,1,versionA_stim.csv,ReadVersion.csv,Read,Read1,LITTER,TRASH,Study1,F,21,9,Test,User,-,,Recall,Recall1,3651,Cat,25,2700,3276,0,0,,1
w10159057_afm,oeu89sirdj,"Mediated JOLs",1,64,2024-03-07T05:37:12+00:00,5.3766009807587,1,versionA_stim.csv,ReadVersion.csv,Read,Read1,MEAT,KEYS,Study1,U,41,44,Test,User,-,,Recall,Recall1,5234,Fry,28.571428571429,1773,4918,0,0,,1
w10159057_afm,oeu89sirdj,"Mediated JOLs",1,65,2024-03-07T05:37:16+00:00,3.6701240539551,1,versionA_stim.csv,ReadVersion.csv,Read,Read1,HYGIENE,CLEAN,Study1,F,28,23,Test,User,-,,Recall,Recall1,3547,Clean,100,1975,3186,1,1,,1
w10159057_afm,oeu89sirdj,"Mediated JOLs",1,66,2024-03-07T05:37:19+00:00,3.6398108005524,1,versionA_stim.csv,ReadVersion.csv,Read,Read1,TUNA,FISH,Study1,F,35,22,Test,User,-,,Recall,Recall1,3519,Fish,100,2245,3208,1,1,,1
w10159057_afm,oeu89sirdj,"Mediated JOLs",1,67,2024-03-07T05:37:22+00:00,2.8479881286621,1,versionA_stim.csv,ReadVersion.csv,Read,Read1,CEILING,CARPET,Study1,M,15,31,Test,User,-,,Recall,Recall1,2684,Fam,22.222222222222,1647,2306,0,0,,1
w10159057_afm,oeu89sirdj,"Mediated JOLs",1,68,2024-03-07T05:37:26+00:00,3.6138179302216,1,versionA_stim.csv,ReadVersion.csv,Read,Read1,BEACH,BOX,Study1,M,7,28,Test,User,-,,Recall,Recall1,3475,Water,0,2292,3168,0,0,,1
w10159057_afm,oeu89sirdj,"Mediated JOLs",1,69,2024-03-07T05:37:33+00:00,7.3612849712372,1,versionA_stim.csv,ReadVersion.csv,Read,Read1,CIRCLE,DANCE,Study1,M,13,24,Test,User,-,,Recall,Recall1,7212,Square,36.363636363636,4292,6271,0,0,,1
w10159057_afm,oeu89sirdj,"Mediated JOLs",1,70,2024-03-07T05:37:36+00:00,3.0869381427765,1,versionA_stim.csv,ReadVersion.csv,Read,Read1,TREE,SYRUP,Study1,M,11,12,Test,User,-,,Recall,Recall1,2963,Green,20,1726,2605,0,0,,1
w10159057_afm,oeu89sirdj,"Mediated JOLs",1,71,2024-03-07T05:37:39+00:00,2.7673590183258,1,versionA_stim.csv,ReadVersion.csv,Read,Read1,VEHICLE,CHARM,Study1,U,40,16,Test,User,-,,Recall,Recall1,2642,Car,75,1813,2330,0,1,,1
w10159057_afm,oeu89sirdj,"Mediated JOLs",1,72,2024-03-07T05:37:42+00:00,2.9357948303223,1,versionA_stim.csv,ReadVersion.csv,Read,Read1,TEMPERATURE,MORNING,Study1,U,48,7,Test,User,-,,Recall,Recall1,2811,Hot,20,1852,2480,0,0,,1
w10159057_afm,oeu89sirdj,"Mediated JOLs",1,73,2024-03-07T05:37:49+00:00,6.7063930034637,1,versionA_stim.csv,ReadVersion.csv,Read,Read1,SCALP,HEAD,Study1,F,23,41,Test,User,-,,Recall,Recall1,6529,Teeth,22.222222222222,5393,6236,0,0,,1
w10159057_afm,oeu89sirdj,"Mediated JOLs",1,74,2024-03-07T05:37:53+00:00,4.7938220500946,1,versionA_stim.csv,ReadVersion.csv,Read,Read1,AFFECTION,LOVE,Study1,F,31,42,Test,User,-,,Recall,Recall1,4550,Dry,0,3815,4257,0,0,,1
w10159057_afm,oeu89sirdj,"Mediated JOLs",1,75,2024-03-07T05:37:57+00:00,3.7703850269318,1,versionA_stim.csv,ReadVersion.csv,Read,Read1,CAKE,HAND,Study1,U,49,25,Test,User,-,,Recall,Recall1,3642,Pie,0,2363,3092,0,0,,1
w10159057_afm,oeu89sirdj,"Mediated JOLs",1,76,2024-03-07T05:38:01+00:00,3.3837931156158,1,versionA_stim.csv,ReadVersion.csv,Read,Read1,SWAN,BIRD,Study1,F,26,36,Test,User,-,,Recall,Recall1,3271,Goose,0,1881,2908,0,0,,1
w10159057_afm,oeu89sirdj,"Mediated JOLs",1,77,2024-03-07T05:38:04+00:00,2.9920618534088,1,versionA_stim.csv,ReadVersion.csv,Read,Read1,ROUGH,SILK,Study1,M,10,18,Test,User,-,,Recall,Recall1,2867,Tough,0,1542,2523,0,0,,1
w10159057_afm,oeu89sirdj,"Mediated JOLs",1,78,2024-03-07T05:38:07+00:00,3.774120092392,1,versionA_stim.csv,ReadVersion.csv,Read,Read1,KEYS,ROD,Study1,U,45,33,Test,User,-,,Recall,Recall1,3638,Car,33.333333333333,2117,2662,0,0,,1
w10159057_afm,oeu89sirdj,"Mediated JOLs",1,79,2024-03-07T05:38:12+00:00,4.2736389636993,1,versionA_stim.csv,ReadVersion.csv,Read,Read1,WEDDING,FINGER,Study1,M,17,29,Test,User,-,,Recall,Recall1,4061,Ring,60,1440,3684,0,0,,1
w10159057_afm,oeu89sirdj,"Mediated JOLs",1,80,2024-03-07T05:38:17+00:00,4.8450040817261,1,versionA_stim.csv,ReadVersion.csv,Read,Read1,LISTEN,FICTION,Study1,U,44,34,Test,User,-,,Recall,Recall1,4665,Hear,0,3510,4268,0,0,,1
w10159057_afm,oeu89sirdj,"Mediated JOLs",1,81,2024-03-07T05:38:20+00:00,3.3406629562378,1,versionA_stim.csv,ReadVersion.csv,Read,Read1,SIP,DRINK,Study1,F,32,14,Test,User,-,,Recall,Recall1,3196,Drink,100,1775,2855,1,1,,1
w10159057_afm,oeu89sirdj,"Mediated JOLs",1,82,2024-03-07T05:38:23+00:00,3.0085639953613,1,versionA_stim.csv,ReadVersion.csv,Read,Read1,SOON,BELT,Study1,U,46,20,Test,User,-,,Recall,Recall1,2890,After,22.222222222222,1656,2550,0,0,,1
w10159057_afm,oeu89sirdj,"Mediated JOLs",1,83,2024-03-07T05:38:27+00:00,4.155345916748,1,versionA_stim.csv,ReadVersion.csv,Read,Read1,NAP,SLEEP,Study1,F,29,45,Test,User,-,,Recall,Recall1,3997,Sleep,100,2476,3603,1,1,,1
w10159057_afm,oeu89sirdj,"Mediated JOLs",1,84,2024-03-07T05:38:33+00:00,5.5198559761047,1,versionA_stim.csv,ReadVersion.csv,Read,Read1,CRACKLE,ELECTION,Study1,U,39,50,Test,User,-,,Recall,Recall1,5356,Nuckle,28.571428571429,3085,4963,0,0,,1
w10159057_afm,oeu89sirdj,"Mediated JOLs",1,85,2024-03-07T05:38:36+00:00,3.136568069458,1,versionA_stim.csv,ReadVersion.csv,Read,Read1,CREDIT,CARD,Study1,F,33,43,Test,User,-,,Recall,Recall1,3004,Card,100,1852,2562,1,1,,1
w10159057_afm,oeu89sirdj,"Mediated JOLs",1,86,2024-03-07T05:38:41+00:00,5.2216129302979,1,versionA_stim.csv,ReadVersion.csv,Read,Read1,BAT,BOUNCE,Study1,M,12,40,Test,User,-,,Recall,Recall1,5084,Moon,40,2132,3963,0,0,,1
w10159057_afm,oeu89sirdj,"Mediated JOLs",1,87,2024-03-07T05:38:44+00:00,2.7540080547333,1,versionA_stim.csv,ReadVersion.csv,Read,Read1,WORD,SENTENCE,Study1,F,27,26,Test,User,-,,Recall,Recall1,2627,Bank,16.666666666667,1339,2236,0,0,,1
w10159057_afm,oeu89sirdj,"Mediated JOLs",1,88,2024-03-07T05:38:47+00:00,2.902764081955,1,versionA_stim.csv,ReadVersion.csv,Read,Read1,TOOTH,HAIR,Study1,M,19,15,Test,User,-,,Recall,Recall1,2773,Hair,100,1504,2463,1,1,,1
w10159057_afm,oeu89sirdj,"Mediated JOLs",1,89,2024-03-07T05:38:50+00:00,2.9476389884949,1,versionA_stim.csv,ReadVersion.csv,Read,Read1,CRY,BOTTLE,Study1,M,16,32,Test,User,-,,Recall,Recall1,2828,Sad,0,2089,2450,0,0,,1
w10159057_afm,oeu89sirdj,"Mediated JOLs",1,90,2024-03-07T05:38:59+00:00,9.7239878177643,1,versionA_stim.csv,ReadVersion.csv,Read,Read1,STRETCH,CLOTH,Study1,U,37,46,Test,User,-,,Recall,Recall1,9572,"Exercise ",15.384615384615,7718,8360,0,0,,1
w10159057_afm,oeu89sirdj,"Mediated JOLs",1,91,2024-03-07T05:39:04+00:00,4.434014081955,1,versionA_stim.csv,ReadVersion.csv,Read,Read1,ORCHID,FLOWER,Study1,F,34,21,Test,User,-,,Recall,Recall1,4284,Blinker,46.153846153846,2011,3856,0,0,,1
w10159057_afm,oeu89sirdj,"Mediated JOLs",1,92,2024-03-07T05:39:08+00:00,3.8967080116272,1,versionA_stim.csv,ReadVersion.csv,Read,Read1,MULE,DONKEY,Study1,F,24,19,Test,User,-,,Recall,Recall1,3767,Moon,40,2093,2769,0,0,,1
w10159057_afm,oeu89sirdj,"Mediated JOLs",1,93,2024-03-07T05:39:11+00:00,3.5752279758453,1,versionA_stim.csv,ReadVersion.csv,Read,Read1,ROOT,PLANT,Study1,F,25,38,Test,User,-,,Recall,Recall1,3459,Toot,22.222222222222,1602,2446,0,0,,1
w10159057_afm,oeu89sirdj,"Mediated JOLs",1,94,2024-03-07T05:39:14+00:00,2.8832631111145,1,versionA_stim.csv,ReadVersion.csv,Read,Read1,MIRROR,MAROON,Study1,U,36,17,Test,User,-,,Recall,Recall1,2498,Wall,20,1440,2136,0,0,,1
w10159057_afm,oeu89sirdj,"Mediated JOLs",1,95,2024-03-07T05:39:17+00:00,3.0217750072479,1,versionA_stim.csv,ReadVersion.csv,Read,Read1,SHELL,SHAKE,Study1,U,43,13,Test,User,-,,Recall,Recall1,2900,Back,44.444444444444,1563,2504,0,0,,1
w10159057_afm,oeu89sirdj,"Mediated JOLs",1,96,2024-03-07T05:39:21+00:00,3.5466628074646,1,versionA_stim.csv,ReadVersion.csv,Read,Read1,MAZE,PHONE,Study1,U,42,48,Test,User,-,,Recall,Recall1,3419,Corn,44.444444444444,2132,3077,0,0,,1
w10159057_afm,oeu89sirdj,"Mediated JOLs",1,97,2024-03-07T05:39:24+00:00,3.1627511978149,1,versionA_stim.csv,ReadVersion.csv,Read,Read1,MULE,DONKEY,Study1,F,30,8,Test,User,-,,Recall,Recall1,3017,Rule,20,1767,2678,0,0,,1
w10159057_afm,oeu89sirdj,"Mediated JOLs",1,98,2024-03-07T05:39:29+00:00,5.5571320056915,1,versionA_stim.csv,ReadVersion.csv,Read,Read1,FUZZY,BANG,Study1,U,50,30,Test,User,-,,Recall,Recall1,5361,Vision,20,3621,5013,0,0,,1
w10159057_afm,oeu89sirdj,"Mediated JOLs",1,99,2024-03-07T05:39:32+00:00,2.7898399829865,1,versionA_stim.csv,ReadVersion.csv,Read,Read1,LION,STRIPES,Study1,M,6,10,Test,User,-,,Recall,Recall1,2662,King,18.181818181818,1678,2305,0,0,,1
w10159057_afm,oeu89sirdj,"Mediated JOLs",1,100,2024-03-07T05:39:35+00:00,3.3391709327698,1,versionA_stim.csv,ReadVersion.csv,Read,Read1,WAGE,MONEY,Study1,F,22,11,Test,User,-,,Recall,Recall1,3216,Money,100,1879,2957,1,1,,1
w10159057_afm,oeu89sirdj,"Mediated JOLs",1,101,2024-03-07T05:39:41+00:00,5.2532761096954,1,versionA_stim.csv,ReadVersion.csv,Read,Read1,BIRTHDAY,PIE,Study1,M,9,51,Test,User,-,,Recall,Recall1,5111,Pie,100,1692,4736,1,1,,1
w10159057_afm,oeu89sirdj,"Mediated JOLs",1,102,2024-03-07T05:39:45+00:00,3.9144418239594,1,versionA_stim.csv,ReadVersion.csv,Read,Read1,HARD,COTTON,Study1,M,20,47,Test,User,-,,Recall,Recall1,3791,Car,22.222222222222,2937,3412,0,0,,1
w10159057_afm,oeu89sirdj,"Mediated JOLs",1,103,2024-03-07T05:39:48+00:00,3.7771029472351,1,versionA_stim.csv,ReadVersion.csv,Read,Read1,SIGN,TICK,Study1,U,47,39,Test,User,-,,Recall,Recall1,3657,"Language ",0,1452,2263,0,0,,1
w10159057_afm,oeu89sirdj,"Mediated JOLs",1,104,2024-03-07T05:39:52+00:00,3.9541292190552,1,versionA_stim.csv,ReadVersion.csv,Read,Read1,HORSE,WHEEL,Study1,M,14,37,Test,User,-,,Recall,Recall1,3833,Mule,22.222222222222,1661,2439,0,0,,1
w10159057_afm,oeu89sirdj,"Mediated JOLs",1,105,2024-03-07T05:39:56+00:00,3.6641159057617,1,versionA_stim.csv,ReadVersion.csv,Read,Read1,DAY,DARK,Study1,M,18,27,Test,User,-,,Recall,Recall1,3546,"Birthday ",33.333333333333,2058,2601,0,0,,1
w10159057_afm,oeu89sirdj,"Mediated JOLs",1,106,2024-03-07T05:40:07+00:00,10.769150018692,1,versionA_stim.csv,ReadVersion.csv,Read,Read1,,,,,,0,Instruct,-,10,"You will now be presented with a new set of word pairs. Please study each pair. Remember that your memory will be tested! When finished, press Enter to move to the next pair.",Initial_Instruct,Instruct4,10635,,,-1,-1,,,,1
w10159057_afm,oeu89sirdj,"Mediated JOLs",1,107,2024-03-07T05:40:08+00:00,1.3746039867401,1,versionA_stim.csv,ReadVersion.csv,Read,Read1,,,,,,0,Instruct,User,-,"Press Enter when you are readty to begin",,Instruct11,1254,,,-1,-1,,,,1
w10159057_afm,oeu89sirdj,"Mediated JOLs",1,108,2024-03-07T05:40:09+00:00,1.1044878959656,1,versionA_stim.csv,ReadVersion.csv,Read,Read1,ICE,FROZEN,BUFFER4,Buffer,109,111,Study,User,-,,Study/JOL,BUFFER2,995,,,-1,-1,,,,1
w10159057_afm,oeu89sirdj,"Mediated JOLs",1,109,2024-03-07T05:40:11+00:00,1.3220341205597,1,versionA_stim.csv,ReadVersion.csv,Read,Read1,CARROT,POTATO,BUFFER4,Buffer,106,109,Study,User,-,,Study/JOL,BUFFER2,1212,,,-1,-1,,,,1
w10159057_afm,oeu89sirdj,"Mediated JOLs",1,110,2024-03-07T05:40:12+00:00,1.29816198349,1,versionA_stim.csv,ReadVersion.csv,Read,Read1,SHRIMP,FISH,BUFFER4,Buffer,108,107,Study,User,-,,Study/JOL,BUFFER2,1126,,,-1,-1,,,,1
w10159057_afm,oeu89sirdj,"Mediated JOLs",1,111,2024-03-07T05:40:13+00:00,1.0646109580994,1,versionA_stim.csv,ReadVersion.csv,Read,Read1,CAMP,ADVENTURE,BUFFER4,Buffer,110,108,Study,User,-,,Study/JOL,BUFFER2,749,,,-1,-1,,,,1
w10159057_afm,oeu89sirdj,"Mediated JOLs",1,112,2024-03-07T05:40:14+00:00,0.72393894195557,1,versionA_stim.csv,ReadVersion.csv,Read,Read1,THING,STUFF,BUFFER2,Buffer,55,54,Study,User,-,,Study/JOL,BUFFER2,463,,,-1,-1,,,,1
w10159057_afm,oeu89sirdj,"Mediated JOLs",1,113,2024-03-07T05:40:15+00:00,0.84996819496155,1,versionA_stim.csv,ReadVersion.csv,Read,Read1,PANTS,COLLAR,Study2,M,63,83,Study,User,-,,Study/JOL,"Study Phase2",447,,,-1,-1,,,,1
w10159057_afm,oeu89sirdj,"Mediated JOLs",1,114,2024-03-07T05:40:15+00:00,0.70004081726074,1,versionA_stim.csv,ReadVersion.csv,Read,Read1,KING,VASE,Study2,U,91,101,Study,User,-,,Study/JOL,"Study Phase2",582,,,-1,-1,,,,1
w10159057_afm,oeu89sirdj,"Mediated JOLs",1,115,2024-03-07T05:40:16+00:00,0.67145800590515,1,versionA_stim.csv,ReadVersion.csv,Read,Read1,TRAP,CAVE,Study2,M,70,104,Study,User,-,,Study/JOL,"Study Phase2",543,,,-1,-1,,,,1
w10159057_afm,oeu89sirdj,"Mediated JOLs",1,116,2024-03-07T05:40:16+00:00,0.50813817977905,1,versionA_stim.csv,ReadVersion.csv,Read,Read1,GRILL,THIGH,Study2,M,72,77,Study,User,-,,Study/JOL,"Study Phase2",370,,,-1,-1,,,,1
w10159057_afm,oeu89sirdj,"Mediated JOLs",1,117,2024-03-07T05:40:17+00:00,0.47470378875732,1,versionA_stim.csv,ReadVersion.csv,Read,Read1,REALITY,ISLAND,Study2,M,64,89,Study,User,-,,Study/JOL,"Study Phase2",350,,,-1,-1,,,,1
w10159057_afm,oeu89sirdj,"Mediated JOLs",1,118,2024-03-07T05:40:17+00:00,0.46110606193542,1,versionA_stim.csv,ReadVersion.csv,Read,Read1,SOAP,DRINK,Study2,M,67,73,Study,User,-,,Study/JOL,"Study Phase2",347,,,-1,-1,,,,1
w10159057_afm,oeu89sirdj,"Mediated JOLs",1,119,2024-03-07T05:40:18+00:00,0.45298504829407,1,versionA_stim.csv,ReadVersion.csv,Read,Read1,WASP,BUG,Study2,F,89,68,Study,User,-,,Study/JOL,"Study Phase2",334,,,-1,-1,,,,1
w10159057_afm,oeu89sirdj,"Mediated JOLs",1,120,2024-03-07T05:40:18+00:00,0.55953001976013,1,versionA_stim.csv,ReadVersion.csv,Read,Read1,RAZOR,MUSCLE,Study2,M,75,93,Study,User,-,,Study/JOL,"Study Phase2",449,,,-1,-1,,,,1
w10159057_afm,oeu89sirdj,"Mediated JOLs",1,121,2024-03-07T05:40:20+00:00,1.6115229129791,1,versionA_stim.csv,ReadVersion.csv,Read,Read1,DIETARY,SACK,Study2,U,97,69,Study,User,-,,Study/JOL,"Study Phase2",1285,,,-1,-1,,,,1
w10159057_afm,oeu89sirdj,"Mediated JOLs",1,122,2024-03-07T05:40:21+00:00,0.65889596939087,1,versionA_stim.csv,ReadVersion.csv,Read,Read1,CHOP,CUT,Study2,F,77,81,Study,User,-,,Study/JOL,"Study Phase2",541,,,-1,-1,,,,1
w10159057_afm,oeu89sirdj,"Mediated JOLs",1,123,2024-03-07T05:40:21+00:00,0.56902098655701,1,versionA_stim.csv,ReadVersion.csv,Read,Read1,CHILL,COLD,Study2,F,87,103,Study,User,-,,Study/JOL,"Study Phase2",451,,,-1,-1,,,,1
w10159057_afm,oeu89sirdj,"Mediated JOLs",1,124,2024-03-07T05:40:22+00:00,0.60506820678711,1,versionA_stim.csv,ReadVersion.csv,Read,Read1,CHISEL,HAMMER,Study2,F,78,88,Study,User,-,,Study/JOL,"Study Phase2",482,,,-1,-1,,,,1
w10159057_afm,oeu89sirdj,"Mediated JOLs",1,125,2024-03-07T05:40:22+00:00,0.59887886047363,1,versionA_stim.csv,ReadVersion.csv,Read,Read1,VALLEY,PEAK,Study2,M,73,67,Study,User,-,,Study/JOL,"Study Phase2",475,,,-1,-1,,,,1
w10159057_afm,oeu89sirdj,"Mediated JOLs",1,126,2024-03-07T05:40:23+00:00,0.59903693199158,1,versionA_stim.csv,ReadVersion.csv,Read,Read1,LEAGUE,BASEBALL,Study2,F,84,66,Study,User,-,,Study/JOL,"Study Phase2",481,,,-1,-1,,,,1
w10159057_afm,oeu89sirdj,"Mediated JOLs",1,127,2024-03-07T05:40:24+00:00,0.60214114189148,1,versionA_stim.csv,ReadVersion.csv,Read,Read1,ART,WOLF,Study2,U,93,71,Study,User,-,,Study/JOL,"Study Phase2",478,,,-1,-1,,,,1
w10159057_afm,oeu89sirdj,"Mediated JOLs",1,128,2024-03-07T05:40:24+00:00,0.56712102890015,1,versionA_stim.csv,ReadVersion.csv,Read,Read1,NURSE,LAWYER,Study2,M,66,78,Study,User,-,,Study/JOL,"Study Phase2",445,,,-1,-1,,,,1
w10159057_afm,oeu89sirdj,"Mediated JOLs",1,129,2024-03-07T05:40:25+00:00,0.56159591674805,1,versionA_stim.csv,ReadVersion.csv,Read,Read1,ATTIRE,CLOTHES,Study2,F,79,87,Study,User,-,,Study/JOL,"Study Phase2",435,,,-1,-1,,,,1
w10159057_afm,oeu89sirdj,"Mediated JOLs",1,130,2024-03-07T05:40:25+00:00,0.63411808013916,1,versionA_stim.csv,ReadVersion.csv,Read,Read1,LEASE,TOIL,Study2,U,101,74,Study,User,-,,Study/JOL,"Study Phase2",516,,,-1,-1,,,,1
w10159057_afm,oeu89sirdj,"Mediated JOLs",1,131,2024-03-07T05:40:26+00:00,0.56702494621277,1,versionA_stim.csv,ReadVersion.csv,Read,Read1,RAKE,SEED,Study2,M,69,85,Study,User,-,,Study/JOL,"Study Phase2",455,,,-1,-1,,,,1
w10159057_afm,oeu89sirdj,"Mediated JOLs",1,132,2024-03-07T05:40:27+00:00,1.4458129405975,1,versionA_stim.csv,ReadVersion.csv,Read,Read1,STRONG,ACCIDENT,Study2,U,94,90,Study,User,-,,Study/JOL,"Study Phase2",1335,,,-1,-1,,,,1
w10159057_afm,oeu89sirdj,"Mediated JOLs",1,133,2024-03-07T05:40:28+00:00,0.60455012321472,1,versionA_stim.csv,ReadVersion.csv,Read,Read1,DEATH,BUSINESS,Study2,U,99,105,Study,User,-,,Study/JOL,"Study Phase2",480,,,-1,-1,,,,1
w10159057_afm,oeu89sirdj,"Mediated JOLs",1,134,2024-03-07T05:40:29+00:00,0.64462900161743,1,versionA_stim.csv,ReadVersion.csv,Read,Read1,OVEN,BASKET,Study2,M,71,95,Study,User,-,,Study/JOL,"Study Phase2",531,,,-1,-1,,,,1
w10159057_afm,oeu89sirdj,"Mediated JOLs",1,135,2024-03-07T05:40:29+00:00,0.62416887283325,1,versionA_stim.csv,ReadVersion.csv,Read,Read1,SUMMER,SNOW,Study2,M,61,91,Study,User,-,,Study/JOL,"Study Phase2",490,,,-1,-1,,,,1
w10159057_afm,oeu89sirdj,"Mediated JOLs",1,136,2024-03-07T05:40:30+00:00,0.67608404159546,1,versionA_stim.csv,ReadVersion.csv,Read,Read1,ARTERY,BRONZE,Study2,U,103,82,Study,User,-,,Study/JOL,"Study Phase2",561,,,-1,-1,,,,1
w10159057_afm,oeu89sirdj,"Mediated JOLs",1,137,2024-03-07T05:40:31+00:00,0.65497493743896,1,versionA_stim.csv,ReadVersion.csv,Read,Read1,BRIDGE,WATER,Study2,F,90,106,Study,User,-,,Study/JOL,"Study Phase2",542,,,-1,-1,,,,1
w10159057_afm,oeu89sirdj,"Mediated JOLs",1,138,2024-03-07T05:40:31+00:00,0.88176298141479,1,versionA_stim.csv,ReadVersion.csv,Read,Read1,BOTH,OUNCE,Study2,U,102,98,Study,User,-,,Study/JOL,"Study Phase2",534,,,-1,-1,,,,1
w10159057_afm,oeu89sirdj,"Mediated JOLs",1,139,2024-03-07T05:40:32+00:00,0.75521802902222,1,versionA_stim.csv,ReadVersion.csv,Read,Read1,CACTUS,PLANT,Study2,F,76,100,Study,User,-,,Study/JOL,"Study Phase2",639,,,-1,-1,,,,1
w10159057_afm,oeu89sirdj,"Mediated JOLs",1,140,2024-03-07T05:40:33+00:00,0.74686408042908,1,versionA_stim.csv,ReadVersion.csv,Read,Read1,PUSH,CLUTTER,Study2,U,96,84,Study,User,-,,Study/JOL,"Study Phase2",610,,,-1,-1,,,,1
w10159057_afm,oeu89sirdj,"Mediated JOLs",1,141,2024-03-07T05:40:34+00:00,0.68415093421936,1,versionA_stim.csv,ReadVersion.csv,Read,Read1,DOCUMENT,PAPER,Study2,F,82,92,Study,User,-,,Study/JOL,"Study Phase2",565,,,-1,-1,,,,1
w10159057_afm,oeu89sirdj,"Mediated JOLs",1,142,2024-03-07T05:40:35+00:00,0.95923900604248,1,versionA_stim.csv,ReadVersion.csv,Read,Read1,WINDOW,KNOB,Study2,M,74,102,Study,User,-,,Study/JOL,"Study Phase2",846,,,-1,-1,,,,1
w10159057_afm,oeu89sirdj,"Mediated JOLs",1,143,2024-03-07T05:40:35+00:00,0.83768105506897,1,versionA_stim.csv,ReadVersion.csv,Read,Read1,SCHOOL,STOP,Study2,M,62,80,Study,User,-,,Study/JOL,"Study Phase2",684,,,-1,-1,,,,1
w10159057_afm,oeu89sirdj,"Mediated JOLs",1,144,2024-03-07T05:40:36+00:00,0.59351205825806,1,versionA_stim.csv,ReadVersion.csv,Read,Read1,SUGAR,RIDDLE,Study2,U,95,79,Study,User,-,,Study/JOL,"Study Phase2",479,,,-1,-1,,,,1
w10159057_afm,oeu89sirdj,"Mediated JOLs",1,145,2024-03-07T05:40:37+00:00,0.57937693595886,1,versionA_stim.csv,ReadVersion.csv,Read,Read1,CHERRY,RED,Study2,F,80,62,Study,User,-,,Study/JOL,"Study Phase2",464,,,-1,-1,,,,1
w10159057_afm,oeu89sirdj,"Mediated JOLs",1,146,2024-03-07T05:40:37+00:00,0.57749104499817,1,versionA_stim.csv,ReadVersion.csv,Read,Read1,HORNET,STING,Study2,F,85,63,Study,User,-,,Study/JOL,"Study Phase2",460,,,-1,-1,,,,1
w10159057_afm,oeu89sirdj,"Mediated JOLs",1,147,2024-03-07T05:40:38+00:00,0.57438898086548,1,versionA_stim.csv,ReadVersion.csv,Read,Read1,FEUD,FIGHT,Study2,F,86,76,Study,User,-,,Study/JOL,"Study Phase2",465,,,-1,-1,,,,1
w10159057_afm,oeu89sirdj,"Mediated JOLs",1,148,2024-03-07T05:40:38+00:00,0.59334993362427,1,versionA_stim.csv,ReadVersion.csv,Read,Read1,BLAZE,FIRE,Study2,F,81,65,Study,User,-,,Study/JOL,"Study Phase2",478,,,-1,-1,,,,1
w10159057_afm,oeu89sirdj,"Mediated JOLs",1,149,2024-03-07T05:40:39+00:00,0.51749110221863,1,versionA_stim.csv,ReadVersion.csv,Read,Read1,INCENSE,SMELL,Study2,F,83,97,Study,User,-,,Study/JOL,"Study Phase2",398,,,-1,-1,,,,1
w10159057_afm,oeu89sirdj,"Mediated JOLs",1,150,2024-03-07T05:40:39+00:00,0.51535487174988,1,versionA_stim.csv,ReadVersion.csv,Read,Read1,CASH,LEG,Study2,U,105,94,Study,User,-,,Study/JOL,"Study Phase2",396,,,-1,-1,,,,1
w10159057_afm,oeu89sirdj,"Mediated JOLs",1,151,2024-03-07T05:40:40+00:00,0.4722421169281,1,versionA_stim.csv,ReadVersion.csv,Read,Read1,HERD,COW,Study2,F,88,99,Study,User,-,,Study/JOL,"Study Phase2",312,,,-1,-1,,,,1
w10159057_afm,oeu89sirdj,"Mediated JOLs",1,152,2024-03-07T05:40:40+00:00,0.47768688201904,1,versionA_stim.csv,ReadVersion.csv,Read,Read1,HAPPY,CAR,Study2,U,92,72,Study,User,-,,Study/JOL,"Study Phase2",361,,,-1,-1,,,,1
w10159057_afm,oeu89sirdj,"Mediated JOLs",1,153,2024-03-07T05:40:41+00:00,0.50019812583923,1,versionA_stim.csv,ReadVersion.csv,Read,Read1,MIRROR,CHILDREN,Study2,U,104,64,Study,User,-,,Study/JOL,"Study Phase2",379,,,-1,-1,,,,1
w10159057_afm,oeu89sirdj,"Mediated JOLs",1,154,2024-03-07T05:40:41+00:00,0.55590891838074,1,versionA_stim.csv,ReadVersion.csv,Read,Read1,SICK,HIDE,Study2,U,100,75,Study,User,-,,Study/JOL,"Study Phase2",440,,,-1,-1,,,,1
w10159057_afm,oeu89sirdj,"Mediated JOLs",1,155,2024-03-07T05:40:42+00:00,0.53895211219788,1,versionA_stim.csv,ReadVersion.csv,Read,Read1,BENCH,HORN,Study2,U,98,86,Study,User,-,,Study/JOL,"Study Phase2",424,,,-1,-1,,,,1
w10159057_afm,oeu89sirdj,"Mediated JOLs",1,156,2024-03-07T05:40:42+00:00,0.53602886199951,1,versionA_stim.csv,ReadVersion.csv,Read,Read1,EYES,SMELL,Study2,M,65,70,Study,User,-,,Study/JOL,"Study Phase2",422,,,-1,-1,,,,1
w10159057_afm,oeu89sirdj,"Mediated JOLs",1,157,2024-03-07T05:40:43+00:00,0.47482895851135,1,versionA_stim.csv,ReadVersion.csv,Read,Read1,HEAVY,FEATHER,Study2,M,68,96,Study,User,-,,Study/JOL,"Study Phase2",355,,,-1,-1,,,,1
w10159057_afm,oeu89sirdj,"Mediated JOLs",1,158,2024-03-07T05:40:43+00:00,0.55692410469055,1,versionA_stim.csv,ReadVersion.csv,Read,Read1,MALT,CHOCOLATE,BUFFER2,Buffer,53,56,Study,User,-,,Study/JOL,BUFFER2,449,,,-1,-1,,,,1
w10159057_afm,oeu89sirdj,"Mediated JOLs",1,159,2024-03-07T05:40:44+00:00,0.46322894096375,1,versionA_stim.csv,ReadVersion.csv,Read,Read1,NOODLE,STRING,BUFFER4,Buffer,107,110,Study,User,-,,Study/JOL,BUFFER2,345,,,-1,-1,,,,1
w10159057_afm,oeu89sirdj,"Mediated JOLs",1,160,2024-03-07T05:40:44+00:00,0.54001092910767,1,versionA_stim.csv,ReadVersion.csv,Read,Read1,SHERRIF,POLICE,BUFFER2,Buffer,52,53,Study,User,-,,Study/JOL,BUFFER2,422,,,-1,-1,,,,1
w10159057_afm,oeu89sirdj,"Mediated JOLs",1,161,2024-03-07T05:40:45+00:00,0.50236320495605,1,versionA_stim.csv,ReadVersion.csv,Read,Read1,TOOL,SHED,BUFFER3,Buffer,58,60,Study,User,-,,Study/JOL,BUFFER2,382,,,-1,-1,,,,1
w10159057_afm,oeu89sirdj,"Mediated JOLs",1,162,2024-03-07T05:40:46+00:00,0.51353001594543,1,versionA_stim.csv,ReadVersion.csv,Read,Read1,GEESE,GOOSE,BUFFER2,Buffer,51,52,Study,User,-,,Study/JOL,BUFFER2,401,,,-1,-1,,,,1
w10159057_afm,oeu89sirdj,"Mediated JOLs",1,163,2024-03-07T05:40:49+00:00,3.1503129005432,1,versionA_stim.csv,ReadVersion.csv,Read,Read1,,,,,,0,Instruct,User,-,"You have completed this section. Please press Enter.",Filler_Instruction,Instruct2,3012,,,-1,-1,,,,1
w10159057_afm,oeu89sirdj,"Mediated JOLs",1,164,2024-03-07T05:42:49+00:00,120.27385807037,1,versionA_stim.csv,ReadVersion.csv,Read,Read1,,,,,,0,FreeRecall,120,120,"Please list the 50 US states in alphabetical order. The task will automatically advance to the next screen after two minutes.",,Filler1,120003,"AL|Alabama AK|Alaska AZ|Arizona AR|Arkansas CA|California CO|Colorado CT|Connecticut DE|Delaware FL|Florida GA|Georgia HI|Hawaii ID|Idaho IL|Illinois IN|Indiana IA|Iowa KS|Kansas KY|Kentucky LA|Louisiana ME|Maine MD|Maryland MA|Massachusetts MI|Michigan MN|Minnesota MS|Mississippi MO|Missouri MT|Montana NE|Nebraska NV",0,79857,79857,0,0,,1
w10159057_afm,oeu89sirdj,"Mediated JOLs",1,165,2024-03-07T05:43:03+00:00,14.363581895828,1,versionA_stim.csv,ReadVersion.csv,Read,Read1,,,,,,0,Instruct,-,10,"You will now be presented with the first word from each of the previously studied item pairs. Please type the missing word. If you do not know the word, you may guess or press Enter to skip forward to the next pair.",,Instruct3,14191,,,-1,-1,,,,1
w10159057_afm,oeu89sirdj,"Mediated JOLs",1,166,2024-03-07T05:43:08+00:00,4.3275210857391,1,versionA_stim.csv,ReadVersion.csv,Read,Read1,WINDOW,KNOB,Study2,M,74,102,Test,User,-,,Recall,Recall2,4156,Wiper,0,2618,3826,0,0,,1
w10159057_afm,oeu89sirdj,"Mediated JOLs",1,167,2024-03-07T05:43:12+00:00,3.9349730014801,1,versionA_stim.csv,ReadVersion.csv,Read,Read1,CASH,LEG,Study2,U,105,94,Test,User,-,,Recall,Recall2,3790,Trash,0,2297,3491,0,0,,1
w10159057_afm,oeu89sirdj,"Mediated JOLs",1,168,2024-03-07T05:43:15+00:00,3.7927649021149,1,versionA_stim.csv,ReadVersion.csv,Read,Read1,CHOP,CUT,Study2,F,77,81,Test,User,-,,Recall,Recall2,3663,Mop,0,2678,3188,0,0,,1
w10159057_afm,oeu89sirdj,"Mediated JOLs",1,169,2024-03-07T05:43:19+00:00,3.4508879184723,1,versionA_stim.csv,ReadVersion.csv,Read,Read1,SICK,HIDE,Study2,U,100,75,Test,User,-,,Recall,Recall2,3327,Chilf,44.444444444444,1973,3017,0,0,,1
w10159057_afm,oeu89sirdj,"Mediated JOLs",1,170,2024-03-07T05:43:24+00:00,5.4952700138092,1,versionA_stim.csv,ReadVersion.csv,Read,Read1,HEAVY,FEATHER,Study2,M,68,96,Test,User,-,,Recall,Recall2,5350,Weight,30.769230769231,2095,3172,0,0,,1
w10159057_afm,oeu89sirdj,"Mediated JOLs",1,171,2024-03-07T05:43:58+00:00,33.649482011795,1,versionA_stim.csv,ReadVersion.csv,Read,Read1,VALLEY,PEAK,Study2,M,73,67,Test,User,-,,Recall,Recall2,33491,Alley,22.222222222222,30502,32934,0,0,,1
w10159057_afm,oeu89sirdj,"Mediated JOLs",1,172,2024-03-07T05:44:02+00:00,4.4528520107269,1,versionA_stim.csv,ReadVersion.csv,Read,Read1,KING,VASE,Study2,U,91,101,Test,User,-,,Recall,Recall2,4306,Lion,0,2608,3234,0,0,,1
w10159057_afm,oeu89sirdj,"Mediated JOLs",1,173,2024-03-07T05:44:06+00:00,3.92418217659,1,versionA_stim.csv,ReadVersion.csv,Read,Read1,LEAGUE,BASEBALL,Study2,F,84,66,Test,User,-,,Recall,Recall2,3785,Little,28.571428571429,1712,3493,0,0,,1
w10159057_afm,oeu89sirdj,"Mediated JOLs",1,174,2024-03-07T05:44:10+00:00,3.4549188613892,1,versionA_stim.csv,ReadVersion.csv,Read,Read1,CHISEL,HAMMER,Study2,F,78,88,Test,User,-,,Recall,Recall2,3333,Bird,20,2283,3027,0,0,,1
w10159057_afm,oeu89sirdj,"Mediated JOLs",1,175,2024-03-07T05:44:18+00:00,7.7783770561218,1,versionA_stim.csv,ReadVersion.csv,Read,Read1,BOTH,OUNCE,Study2,U,102,98,Test,User,-,,Recall,Recall2,7586,"Question ",30.769230769231,3498,6524,0,0,,1
w10159057_afm,oeu89sirdj,"Mediated JOLs",1,176,2024-03-07T05:44:20+00:00,2.5452930927277,1,versionA_stim.csv,ReadVersion.csv,Read,Read1,SOAP,DRINK,Study2,M,67,73,Test,User,-,,Recall,Recall2,2396,Bar,25,1537,2099,0,0,,1
w10159057_afm,oeu89sirdj,"Mediated JOLs",1,177,2024-03-07T05:44:25+00:00,4.9878418445587,1,versionA_stim.csv,ReadVersion.csv,Read,Read1,ATTIRE,CLOTHES,Study2,F,79,87,Test,User,-,,Recall,Recall2,4841,"Clothes ",100,2034,3280,1,1,,1
w10159057_afm,oeu89sirdj,"Mediated JOLs",1,178,2024-03-07T05:44:29+00:00,3.7609801292419,1,versionA_stim.csv,ReadVersion.csv,Read,Read1,BLAZE,FIRE,Study2,F,81,65,Test,User,-,,Recall,Recall2,3632,Truck,22.222222222222,2179,3272,0,0,,1
w10159057_afm,oeu89sirdj,"Mediated JOLs",1,179,2024-03-07T05:44:35+00:00,6.2561078071594,1,versionA_stim.csv,ReadVersion.csv,Read,Read1,NURSE,LAWYER,Study2,M,66,78,Test,User,-,,Recall,Recall2,6111,"Doctor ",16.666666666667,2656,5116,0,0,,1
w10159057_afm,oeu89sirdj,"Mediated JOLs",1,180,2024-03-07T05:44:41+00:00,5.5849261283875,1,versionA_stim.csv,ReadVersion.csv,Read,Read1,REALITY,ISLAND,Study2,M,64,89,Test,User,-,,Recall,Recall2,5439,Mood,20,4343,5117,0,0,,1
w10159057_afm,oeu89sirdj,"Mediated JOLs",1,181,2024-03-07T05:44:47+00:00,6.424036026001,1,versionA_stim.csv,ReadVersion.csv,Read,Read1,CHERRY,RED,Study2,F,80,62,Test,User,-,,Recall,Recall2,6275,"Blossom ",0,1578,5247,0,0,,1
w10159057_afm,oeu89sirdj,"Mediated JOLs",1,182,2024-03-07T05:44:52+00:00,4.4363679885864,1,versionA_stim.csv,ReadVersion.csv,Read,Read1,PUSH,CLUTTER,Study2,U,96,84,Test,User,-,,Recall,Recall2,4287,Start,33.333333333333,2899,3893,0,0,,1
w10159057_afm,oeu89sirdj,"Mediated JOLs",1,183,2024-03-07T05:44:59+00:00,7.7049958705902,1,versionA_stim.csv,ReadVersion.csv,Read,Read1,BRIDGE,WATER,Study2,F,90,106,Test,User,-,,Recall,Recall2,7549,Star,44.444444444444,6043,6872,0,0,,1
w10159057_afm,oeu89sirdj,"Mediated JOLs",1,184,2024-03-07T05:45:07+00:00,7.6210131645203,1,versionA_stim.csv,ReadVersion.csv,Read,Read1,LEASE,TOIL,Study2,U,101,74,Test,User,-,,Recall,Recall2,7473,"Apartment ",15.384615384615,1991,6068,0,0,,1
w10159057_afm,oeu89sirdj,"Mediated JOLs",1,185,2024-03-07T05:45:12+00:00,5.1123340129852,1,versionA_stim.csv,ReadVersion.csv,Read,Read1,HERD,COW,Study2,F,88,99,Test,User,-,,Recall,Recall2,4968,Animals,0,2922,4649,0,0,,1
w10159057_afm,oeu89sirdj,"Mediated JOLs",1,186,2024-03-07T05:45:16+00:00,3.9457149505615,1,versionA_stim.csv,ReadVersion.csv,Read,Read1,DOCUMENT,PAPER,Study2,F,82,92,Test,User,-,,Recall,Recall2,3835,Essay,20,2000,2880,0,0,,1
w10159057_afm,oeu89sirdj,"Mediated JOLs",1,187,2024-03-07T05:45:19+00:00,3.096391916275,1,versionA_stim.csv,ReadVersion.csv,Read,Read1,EYES,SMELL,Study2,M,65,70,Test,User,-,,Recall,Recall2,2967,Sight,20,1590,2653,0,0,,1
w10159057_afm,oeu89sirdj,"Mediated JOLs",1,188,2024-03-07T05:45:23+00:00,3.8666200637817,1,versionA_stim.csv,ReadVersion.csv,Read,Read1,ART,WOLF,Study2,U,93,71,Test,User,-,,Recall,Recall2,3733,Wall,50,1638,3405,0,0,,1
w10159057_afm,oeu89sirdj,"Mediated JOLs",1,189,2024-03-07T05:45:27+00:00,4.4885859489441,1,versionA_stim.csv,ReadVersion.csv,Read,Read1,WASP,BUG,Study2,F,89,68,Test,User,-,,Recall,Recall2,4336,Chalk,0,2851,4060,0,0,,1
w10159057_afm,oeu89sirdj,"Mediated JOLs",1,190,2024-03-07T05:45:30+00:00,2.5179100036621,1,versionA_stim.csv,ReadVersion.csv,Read,Read1,HAPPY,CAR,Study2,U,92,72,Test,User,-,,Recall,Recall2,2392,Sad,33.333333333333,1708,2068,0,0,,1
w10159057_afm,oeu89sirdj,"Mediated JOLs",1,191,2024-03-07T05:45:35+00:00,4.6798470020294,1,versionA_stim.csv,ReadVersion.csv,Read,Read1,RAKE,SEED,Study2,M,69,85,Test,User,-,,Recall,Recall2,4537,Sake,50,3247,4124,0,0,,1
w10159057_afm,oeu89sirdj,"Mediated JOLs",1,192,2024-03-07T05:45:38+00:00,3.6611659526825,1,versionA_stim.csv,ReadVersion.csv,Read,Read1,BENCH,HORN,Study2,U,98,86,Test,User,-,,Recall,Recall2,3532,Weight,20,2245,3286,0,0,,1
w10159057_afm,oeu89sirdj,"Mediated JOLs",1,193,2024-03-07T05:45:42+00:00,4.0060520172119,1,versionA_stim.csv,ReadVersion.csv,Read,Read1,OVEN,BASKET,Study2,M,71,95,Test,User,-,,Recall,Recall2,3887,Stove,36.363636363636,2289,3582,0,0,,1
w10159057_afm,oeu89sirdj,"Mediated JOLs",1,194,2024-03-07T05:45:46+00:00,4.026083946228,1,versionA_stim.csv,ReadVersion.csv,Read,Read1,TRAP,CAVE,Study2,M,70,104,Test,User,-,,Recall,Recall2,3905,"House ",22.222222222222,1817,3477,0,0,,1
w10159057_afm,oeu89sirdj,"Mediated JOLs",1,195,2024-03-07T05:45:50+00:00,3.6902620792389,1,versionA_stim.csv,ReadVersion.csv,Read,Read1,RAZOR,MUSCLE,Study2,M,75,93,Test,User,-,,Recall,Recall2,3573,Legs,40,2405,3250,0,0,,1
w10159057_afm,oeu89sirdj,"Mediated JOLs",1,196,2024-03-07T05:45:54+00:00,4.501697063446,1,versionA_stim.csv,ReadVersion.csv,Read,Read1,ARTERY,BRONZE,Study2,U,103,82,Test,User,-,,Recall,Recall2,4313,Paint,18.181818181818,2456,3878,0,0,,1
w10159057_afm,oeu89sirdj,"Mediated JOLs",1,197,2024-03-07T05:45:58+00:00,3.8955478668213,1,versionA_stim.csv,ReadVersion.csv,Read,Read1,DIETARY,SACK,Study2,U,97,69,Test,User,-,,Recall,Recall2,3763,Food,0,2649,3457,0,0,,1
w10159057_afm,oeu89sirdj,"Mediated JOLs",1,198,2024-03-07T05:46:01+00:00,2.978609085083,1,versionA_stim.csv,ReadVersion.csv,Read,Read1,CHILL,COLD,Study2,F,87,103,Test,User,-,,Recall,Recall2,2856,Out,28.571428571429,2101,2576,0,0,,1
w10159057_afm,oeu89sirdj,"Mediated JOLs",1,199,2024-03-07T05:46:05+00:00,3.4172940254211,1,versionA_stim.csv,ReadVersion.csv,Read,Read1,SUGAR,RIDDLE,Study2,U,95,79,Test,User,-,,Recall,Recall2,3305,Can,0,1756,2317,0,0,,1
w10159057_afm,oeu89sirdj,"Mediated JOLs",1,200,2024-03-07T05:46:08+00:00,3.3583269119263,1,versionA_stim.csv,ReadVersion.csv,Read,Read1,GRILL,THIGH,Study2,M,72,77,Test,User,-,,Recall,Recall2,3234,Teeth,40,2150,2978,0,0,,1
w10159057_afm,oeu89sirdj,"Mediated JOLs",1,201,2024-03-07T05:46:15+00:00,6.8780550956726,1,versionA_stim.csv,ReadVersion.csv,Read,Read1,FEUD,FIGHT,Study2,F,86,76,Test,User,-,,Recall,Recall2,6733,Fruad,20,2413,6373,0,0,,1
w10159057_afm,oeu89sirdj,"Mediated JOLs",1,202,2024-03-07T05:46:20+00:00,5.19588804245,1,versionA_stim.csv,ReadVersion.csv,Read,Read1,CACTUS,PLANT,Study2,F,76,100,Test,User,-,,Recall,Recall2,5044,"Ouch ",0,3494,4636,0,0,,1
w10159057_afm,oeu89sirdj,"Mediated JOLs",1,203,2024-03-07T05:46:23+00:00,2.7757730484009,1,versionA_stim.csv,ReadVersion.csv,Read,Read1,STRONG,ACCIDENT,Study2,U,94,90,Test,User,-,,Recall,Recall2,2653,Man,36.363636363636,1703,2361,0,0,,1
w10159057_afm,oeu89sirdj,"Mediated JOLs",1,204,2024-03-07T05:46:26+00:00,3.0227689743042,1,versionA_stim.csv,ReadVersion.csv,Read,Read1,MIRROR,CHILDREN,Study2,U,104,64,Test,User,-,,Recall,Recall2,2912,Wall,16.666666666667,1330,1972,0,0,,1
w10159057_afm,oeu89sirdj,"Mediated JOLs",1,205,2024-03-07T05:46:32+00:00,6.0135259628296,1,versionA_stim.csv,ReadVersion.csv,Read,Read1,INCENSE,SMELL,Study2,F,83,97,Test,User,-,,Recall,Recall2,5872,Car,0,3753,4328,0,0,,1
w10159057_afm,oeu89sirdj,"Mediated JOLs",1,206,2024-03-07T05:46:40+00:00,8.3720099925995,1,versionA_stim.csv,ReadVersion.csv,Read,Read1,SUMMER,SNOW,Study2,M,61,91,Test,User,-,,Recall,Recall2,8212,Outside,18.181818181818,2247,7888,0,0,,1
w10159057_afm,oeu89sirdj,"Mediated JOLs",1,207,2024-03-07T05:46:44+00:00,4.0451669692993,1,versionA_stim.csv,ReadVersion.csv,Read,Read1,DEATH,BUSINESS,Study2,U,99,105,Test,User,-,,Recall,Recall2,3906,Last,16.666666666667,2752,3577,0,0,,1
w10159057_afm,oeu89sirdj,"Mediated JOLs",1,208,2024-03-07T05:46:47+00:00,2.4775989055634,1,versionA_stim.csv,ReadVersion.csv,Read,Read1,HORNET,STING,Study2,F,85,63,Test,User,-,,Recall,Recall2,2356,Bee,0,1373,1749,0,0,,1
w10159057_afm,oeu89sirdj,"Mediated JOLs",1,209,2024-03-07T05:47:00+00:00,12.819743156433,1,versionA_stim.csv,ReadVersion.csv,Read,Read1,PANTS,COLLAR,Study2,M,63,83,Test,User,-,,Recall,Recall2,12649,"Long ",20,10191,11035,0,0,,1
w10159057_afm,oeu89sirdj,"Mediated JOLs",1,210,2024-03-07T05:47:03+00:00,2.8290758132935,1,versionA_stim.csv,ReadVersion.csv,Read,Read1,SCHOOL,STOP,Study2,M,62,80,Test,User,-,,Recall,Recall2,2681,Bus,28.571428571429,1777,2320,0,0,,1
w10159057_afm,oeu89sirdj,"Mediated JOLs",1,211,2024-03-07T05:47:04+00:00,1.3621151447296,1,versionA_stim.csv,ReadVersion.csv,Read,Read1,,,,,,0,Instruct,User,-,"You have completed this section. Please press Enter.",,Instruct7,1246,,,-1,-1,,,,1
w10159057_afm,oeu89sirdj,"Mediated JOLs",1,212,2024-03-07T05:47:07+00:00,3.4491720199585,1,versionA_stim.csv,ReadVersion.csv,Read,Read1,,,,,,0,Instruct,User,-,"The following screen will ask you a few questions abour your experience today. You must complete these questions to receive credit.",,Instruct8,3334,,,-1,-1,,,,1
