Username,ID,ExperimentName,Session,Trial,Date,TimeDif,"Condition Number","Stimuli File","Order File","Condition Description","Condition Notes",Stimuli*Cue,Stimuli*Answer,Stimuli*Shuffle,"Stimuli*Stimuli Notes",Stimuli*Value,Procedure*Item,"Procedure*Trial Type","Procedure*Max Time","Procedure*Min Time",Procedure*Text,"Procedure*Procedure Notes",Procedure*Shuffle,Response*RT,Response*Response,Response*Accuracy,Response*RTfirst,Response*RTlast,Response*strictAcc,Response*lenientAcc,Response*focus,Response*Focus
w988425_TLM,vaiok4l18q,"Mediated JOLs",1,1,2024-04-25T16:16:57+00:00,9.6842410564423,3,versionB_stim.csv,ReadVersion.csv,Read,Read2,,,,,,0,Instruct,-,5,"In this section, you will be presented with a series of word pairs. Please study each word pair! Your memory will be tested!",Initial_Instruct,Instruct1,9579,,,-1,-1,,,,1
w988425_TLM,vaiok4l18q,"Mediated JOLs",1,2,2024-04-25T16:17:00+00:00,3.7181868553162,3,versionB_stim.csv,ReadVersion.csv,Read,Read2,,,,,,0,Instruct,User,-,"You will now begin. Press Enter when you are ready to begin.",,Instruct16,3587,,,-1,-1,,,,1
w988425_TLM,vaiok4l18q,"Mediated JOLs",1,3,2024-04-25T16:17:06+00:00,5.4242370128632,3,versionB_stim.csv,ReadVersion.csv,Read,Read2,OCTOBER,SPOOKY,BUFFER3,Buffer,5,5,Study,User,-,,Study/JOL,BUFFER,5263,,,-1,-1,,,,1
w988425_TLM,vaiok4l18q,"Mediated JOLs",1,4,2024-04-25T16:17:08+00:00,1.9525032043457,3,versionB_stim.csv,ReadVersion.csv,Read,Read2,MONTH,YEAR,BUFFER3,Buffer,2,6,Study,User,-,,Study/JOL,BUFFER,1705,,,-1,-1,,,,1
w988425_TLM,vaiok4l18q,"Mediated JOLs",1,5,2024-04-25T16:17:13+00:00,5.0276727676392,3,versionB_stim.csv,ReadVersion.csv,Read,Read2,SPRING,MARCH,BUFFER3,Buffer,4,2,Study,User,-,,Study/JOL,BUFFER,4555,,,-1,-1,,,,1
w988425_TLM,vaiok4l18q,"Mediated JOLs",1,6,2024-04-25T16:17:15+00:00,2.2852001190186,3,versionB_stim.csv,ReadVersion.csv,Read,Read2,TOOL,SHED,BUFFER3,Buffer,3,3,Study,User,-,,Study/JOL,BUFFER,2040,,,-1,-1,,,,1
w988425_TLM,vaiok4l18q,"Mediated JOLs",1,7,2024-04-25T16:17:21+00:00,6.345547914505,3,versionB_stim.csv,ReadVersion.csv,Read,Read2,DAYS,WEAKS,BUFFER3,Buffer,1,4,Study,User,-,,Study/JOL,BUFFER,6134,,,-1,-1,,,,1
w988425_TLM,vaiok4l18q,"Mediated JOLs",1,8,2024-04-25T16:17:25+00:00,3.9471139907837,3,versionB_stim.csv,ReadVersion.csv,Read,Read2,RAKE,SEED,Study2,M,14,44,Study,User,-,,Study/JOL,"Study Phase",3758,,,-1,-1,,,,1
w988425_TLM,vaiok4l18q,"Mediated JOLs",1,9,2024-04-25T16:17:28+00:00,3.0974400043488,3,versionB_stim.csv,ReadVersion.csv,Read,Read2,NURSE,LAWYER,Study2,M,11,26,Study,User,-,,Study/JOL,"Study Phase",2856,,,-1,-1,,,,1
w988425_TLM,vaiok4l18q,"Mediated JOLs",1,10,2024-04-25T16:17:32+00:00,3.8810441493988,3,versionB_stim.csv,ReadVersion.csv,Read,Read2,CHISEL,HAMMER,Study2,F,23,47,Study,User,-,,Study/JOL,"Study Phase",3166,,,-1,-1,,,,1
w988425_TLM,vaiok4l18q,"Mediated JOLs",1,11,2024-04-25T16:17:36+00:00,3.4047069549561,3,versionB_stim.csv,ReadVersion.csv,Read,Read2,SCHOOL,STOP,Study2,M,7,15,Study,User,-,,Study/JOL,"Study Phase",3231,,,-1,-1,,,,1
w988425_TLM,vaiok4l18q,"Mediated JOLs",1,12,2024-04-25T16:17:38+00:00,2.3490719795227,3,versionB_stim.csv,ReadVersion.csv,Read,Read2,SUMMER,SNOW,Study2,M,6,22,Study,User,-,,Study/JOL,"Study Phase",2151,,,-1,-1,,,,1
w988425_TLM,vaiok4l18q,"Mediated JOLs",1,13,2024-04-25T16:17:41+00:00,3.2208371162415,3,versionB_stim.csv,ReadVersion.csv,Read,Read2,REALITY,ISLAND,Study2,M,9,34,Study,User,-,,Study/JOL,"Study Phase",3019,,,-1,-1,,,,1
w988425_TLM,vaiok4l18q,"Mediated JOLs",1,14,2024-04-25T16:17:43+00:00,2.2298557758331,3,versionB_stim.csv,ReadVersion.csv,Read,Read2,CHILL,COLD,Study2,F,32,7,Study,User,-,,Study/JOL,"Study Phase",1958,,,-1,-1,,,,1
w988425_TLM,vaiok4l18q,"Mediated JOLs",1,15,2024-04-25T16:17:46+00:00,2.947850227356,3,versionB_stim.csv,ReadVersion.csv,Read,Read2,HERD,COW,Study2,F,33,30,Study,User,-,,Study/JOL,"Study Phase",2500,,,-1,-1,,,,1
w988425_TLM,vaiok4l18q,"Mediated JOLs",1,16,2024-04-25T16:17:50+00:00,3.4335989952087,3,versionB_stim.csv,ReadVersion.csv,Read,Read2,TRAP,CAVE,Study2,M,15,24,Study,User,-,,Study/JOL,"Study Phase",3196,,,-1,-1,,,,1
w988425_TLM,vaiok4l18q,"Mediated JOLs",1,17,2024-04-25T16:17:55+00:00,5.1289467811584,3,versionB_stim.csv,ReadVersion.csv,Read,Read2,BRIDGE,WATER,Study2,F,35,14,Study,User,-,,Study/JOL,"Study Phase",4952,,,-1,-1,,,,1
w988425_TLM,vaiok4l18q,"Mediated JOLs",1,18,2024-04-25T16:17:58+00:00,3.1935150623322,3,versionB_stim.csv,ReadVersion.csv,Read,Read2,SUGAR,RIDDLE,Study2,U,40,42,Study,User,-,,Study/JOL,"Study Phase",2936,,,-1,-1,,,,1
w988425_TLM,vaiok4l18q,"Mediated JOLs",1,19,2024-04-25T16:18:01+00:00,2.62415599823,3,versionB_stim.csv,ReadVersion.csv,Read,Read2,SOAP,DRINK,Study2,M,12,21,Study,User,-,,Study/JOL,"Study Phase",2366,,,-1,-1,,,,1
w988425_TLM,vaiok4l18q,"Mediated JOLs",1,20,2024-04-25T16:18:06+00:00,4.8878750801086,3,versionB_stim.csv,ReadVersion.csv,Read,Read2,WINDOW,KNOB,Study2,M,19,27,Study,User,-,,Study/JOL,"Study Phase",4629,,,-1,-1,,,,1
w988425_TLM,vaiok4l18q,"Mediated JOLs",1,21,2024-04-25T16:18:08+00:00,2.1793439388275,3,versionB_stim.csv,ReadVersion.csv,Read,Read2,CACTUS,PLANT,Study2,F,21,32,Study,User,-,,Study/JOL,"Study Phase",1973,,,-1,-1,,,,1
w988425_TLM,vaiok4l18q,"Mediated JOLs",1,22,2024-04-25T16:18:14+00:00,5.6776990890503,3,versionB_stim.csv,ReadVersion.csv,Read,Read2,DIETARY,SACK,Study2,U,42,17,Study,User,-,,Study/JOL,"Study Phase",5416,,,-1,-1,,,,1
w988425_TLM,vaiok4l18q,"Mediated JOLs",1,23,2024-04-25T16:18:18+00:00,4.0009179115295,3,versionB_stim.csv,ReadVersion.csv,Read,Read2,KING,VASE,Study2,U,36,39,Study,User,-,,Study/JOL,"Study Phase",3793,,,-1,-1,,,,1
w988425_TLM,vaiok4l18q,"Mediated JOLs",1,24,2024-04-25T16:18:24+00:00,6.8552141189575,3,versionB_stim.csv,ReadVersion.csv,Read,Read2,CASH,LEG,Study2,U,50,49,Study,User,-,,Study/JOL,"Study Phase",6659,,,-1,-1,,,,1
w988425_TLM,vaiok4l18q,"Mediated JOLs",1,25,2024-04-25T16:18:30+00:00,6.0643270015717,3,versionB_stim.csv,ReadVersion.csv,Read,Read2,PANTS,COLLAR,Study2,M,8,46,Study,User,-,,Study/JOL,"Study Phase",5833,,,-1,-1,,,,1
w988425_TLM,vaiok4l18q,"Mediated JOLs",1,26,2024-04-25T16:18:43+00:00,12.83336186409,3,versionB_stim.csv,ReadVersion.csv,Read,Read2,LEASE,TOIL,Study2,U,46,19,Study,User,-,,Study/JOL,"Study Phase",12607,,,-1,-1,,,,1
w988425_TLM,vaiok4l18q,"Mediated JOLs",1,27,2024-04-25T16:18:48+00:00,4.252347946167,3,versionB_stim.csv,ReadVersion.csv,Read,Read2,EYES,SMELL,Study2,M,10,11,Study,User,-,,Study/JOL,"Study Phase",4077,,,-1,-1,,,,1
w988425_TLM,vaiok4l18q,"Mediated JOLs",1,28,2024-04-25T16:18:51+00:00,3.3802402019501,3,versionB_stim.csv,ReadVersion.csv,Read,Read2,ATTIRE,CLOTHES,Study2,F,24,9,Study,User,-,,Study/JOL,"Study Phase",3176,,,-1,-1,,,,1
w988425_TLM,vaiok4l18q,"Mediated JOLs",1,29,2024-04-25T16:18:57+00:00,5.5990099906921,3,versionB_stim.csv,ReadVersion.csv,Read,Read2,ART,WOLF,Study2,U,38,38,Study,User,-,,Study/JOL,"Study Phase",5154,,,-1,-1,,,,1
w988425_TLM,vaiok4l18q,"Mediated JOLs",1,30,2024-04-25T16:19:00+00:00,3.1712279319763,3,versionB_stim.csv,ReadVersion.csv,Read,Read2,FEUD,FIGHT,Study2,F,31,20,Study,User,-,,Study/JOL,"Study Phase",2811,,,-1,-1,,,,1
w988425_TLM,vaiok4l18q,"Mediated JOLs",1,31,2024-04-25T16:19:03+00:00,3.5323939323425,3,versionB_stim.csv,ReadVersion.csv,Read,Read2,DOCUMENT,PAPER,Study2,F,27,48,Study,User,-,,Study/JOL,"Study Phase",3288,,,-1,-1,,,,1
w988425_TLM,vaiok4l18q,"Mediated JOLs",1,32,2024-04-25T16:19:19+00:00,15.68075299263,3,versionB_stim.csv,ReadVersion.csv,Read,Read2,STRONG,ACCIDENT,Study2,U,39,31,Study,User,-,,Study/JOL,"Study Phase",15322,,,-1,-1,,,,1
w988425_TLM,vaiok4l18q,"Mediated JOLs",1,33,2024-04-25T16:19:22+00:00,2.9764659404755,3,versionB_stim.csv,ReadVersion.csv,Read,Read2,OVEN,BASKET,Study2,M,16,43,Study,User,-,,Study/JOL,"Study Phase",2661,,,-1,-1,,,,1
w988425_TLM,vaiok4l18q,"Mediated JOLs",1,34,2024-04-25T16:19:28+00:00,5.6383700370789,3,versionB_stim.csv,ReadVersion.csv,Read,Read2,CHERRY,RED,Study2,F,25,41,Study,User,-,,Study/JOL,"Study Phase",5440,,,-1,-1,,,,1
w988425_TLM,vaiok4l18q,"Mediated JOLs",1,35,2024-04-25T16:19:31+00:00,3.7781171798706,3,versionB_stim.csv,ReadVersion.csv,Read,Read2,SICK,HIDE,Study2,U,45,37,Study,User,-,,Study/JOL,"Study Phase",3492,,,-1,-1,,,,1
w988425_TLM,vaiok4l18q,"Mediated JOLs",1,36,2024-04-25T16:19:52+00:00,20.662467002869,3,versionB_stim.csv,ReadVersion.csv,Read,Read2,BOTH,OUNCE,Study2,U,47,35,Study,User,-,,Study/JOL,"Study Phase",19414,,,-1,-1,,,,1
w988425_TLM,vaiok4l18q,"Mediated JOLs",1,37,2024-04-25T16:19:56+00:00,4.1223289966583,3,versionB_stim.csv,ReadVersion.csv,Read,Read2,PUSH,CLUTTER,Study2,U,41,29,Study,User,-,,Study/JOL,"Study Phase",3925,,,-1,-1,,,,1
w988425_TLM,vaiok4l18q,"Mediated JOLs",1,38,2024-04-25T16:19:59+00:00,2.6631457805634,3,versionB_stim.csv,ReadVersion.csv,Read,Read2,RAZOR,MUSCLE,Study2,M,20,18,Study,User,-,,Study/JOL,"Study Phase",2413,,,-1,-1,,,,1
w988425_TLM,vaiok4l18q,"Mediated JOLs",1,39,2024-04-25T16:20:04+00:00,5.2788751125336,3,versionB_stim.csv,ReadVersion.csv,Read,Read2,GRILL,THIGH,Study2,M,17,10,Study,User,-,,Study/JOL,"Study Phase",4989,,,-1,-1,,,,1
w988425_TLM,vaiok4l18q,"Mediated JOLs",1,40,2024-04-25T16:20:08+00:00,3.9862549304962,3,versionB_stim.csv,ReadVersion.csv,Read,Read2,HAPPY,CAR,Study2,U,37,23,Study,User,-,,Study/JOL,"Study Phase",3631,,,-1,-1,,,,1
w988425_TLM,vaiok4l18q,"Mediated JOLs",1,41,2024-04-25T16:20:10+00:00,2.0229680538177,3,versionB_stim.csv,ReadVersion.csv,Read,Read2,LEAGUE,BASEBALL,Study2,F,29,50,Study,User,-,,Study/JOL,"Study Phase",1793,,,-1,-1,,,,1
w988425_TLM,vaiok4l18q,"Mediated JOLs",1,42,2024-04-25T16:20:21+00:00,10.978605031967,3,versionB_stim.csv,ReadVersion.csv,Read,Read2,CHOP,CUT,Study2,F,22,8,Study,User,-,,Study/JOL,"Study Phase",10735,,,-1,-1,,,,1
w988425_TLM,vaiok4l18q,"Mediated JOLs",1,43,2024-04-25T16:20:27+00:00,5.7977809906006,3,versionB_stim.csv,ReadVersion.csv,Read,Read2,HORNET,STING,Study2,F,30,40,Study,User,-,,Study/JOL,"Study Phase",5569,,,-1,-1,,,,1
w988425_TLM,vaiok4l18q,"Mediated JOLs",1,44,2024-04-25T16:20:30+00:00,3.2825479507446,3,versionB_stim.csv,ReadVersion.csv,Read,Read2,DEATH,BUSINESS,Study2,U,44,25,Study,User,-,,Study/JOL,"Study Phase",3136,,,-1,-1,,,,1
w988425_TLM,vaiok4l18q,"Mediated JOLs",1,45,2024-04-25T16:20:40+00:00,9.8359160423279,3,versionB_stim.csv,ReadVersion.csv,Read,Read2,BENCH,HORN,Study2,U,43,36,Study,User,-,,Study/JOL,"Study Phase",9566,,,-1,-1,,,,1
w988425_TLM,vaiok4l18q,"Mediated JOLs",1,46,2024-04-25T16:20:42+00:00,2.2135150432587,3,versionB_stim.csv,ReadVersion.csv,Read,Read2,INCENSE,SMELL,Study2,F,28,16,Study,User,-,,Study/JOL,"Study Phase",1956,,,-1,-1,,,,1
w988425_TLM,vaiok4l18q,"Mediated JOLs",1,47,2024-04-25T16:20:45+00:00,2.4991109371185,3,versionB_stim.csv,ReadVersion.csv,Read,Read2,HEAVY,FEATHER,Study2,M,13,33,Study,User,-,,Study/JOL,"Study Phase",2286,,,-1,-1,,,,1
w988425_TLM,vaiok4l18q,"Mediated JOLs",1,48,2024-04-25T16:20:50+00:00,5.4452829360962,3,versionB_stim.csv,ReadVersion.csv,Read,Read2,VALLEY,PEAK,Study2,M,18,13,Study,User,-,,Study/JOL,"Study Phase",5143,,,-1,-1,,,,1
w988425_TLM,vaiok4l18q,"Mediated JOLs",1,49,2024-04-25T16:20:54+00:00,3.6927750110626,3,versionB_stim.csv,ReadVersion.csv,Read,Read2,ARTERY,BRONZE,Study2,U,48,51,Study,User,-,,Study/JOL,"Study Phase",3456,,,-1,-1,,,,1
w988425_TLM,vaiok4l18q,"Mediated JOLs",1,50,2024-04-25T16:20:56+00:00,1.7453269958496,3,versionB_stim.csv,ReadVersion.csv,Read,Read2,BLAZE,FIRE,Study2,F,26,45,Study,User,-,,Study/JOL,"Study Phase",1573,,,-1,-1,,,,1
w988425_TLM,vaiok4l18q,"Mediated JOLs",1,51,2024-04-25T16:20:58+00:00,2.83349609375,3,versionB_stim.csv,ReadVersion.csv,Read,Read2,WASP,BUG,Study2,F,34,12,Study,User,-,,Study/JOL,"Study Phase",2505,,,-1,-1,,,,1
w988425_TLM,vaiok4l18q,"Mediated JOLs",1,52,2024-04-25T16:21:03+00:00,5.0896189212799,3,versionB_stim.csv,ReadVersion.csv,Read,Read2,MIRROR,CHILDREN,Study2,U,49,28,Study,User,-,,Study/JOL,"Study Phase",4808,,,-1,-1,,,,1
w988425_TLM,vaiok4l18q,"Mediated JOLs",1,53,2024-04-25T16:21:06+00:00,2.978621006012,3,versionB_stim.csv,ReadVersion.csv,Read,Read2,THING,STUFF,BUFFER2,Buffer,110,109,Study,User,-,,Study/JOL,BUFFER2,2813,,,-1,-1,,,,1
w988425_TLM,vaiok4l18q,"Mediated JOLs",1,54,2024-04-25T16:21:08+00:00,1.911612033844,3,versionB_stim.csv,ReadVersion.csv,Read,Read2,GEESE,GOOSE,BUFFER2,Buffer,106,111,Study,User,-,,Study/JOL,BUFFER2,1733,,,-1,-1,,,,1
w988425_TLM,vaiok4l18q,"Mediated JOLs",1,55,2024-04-25T16:21:10+00:00,1.8836250305176,3,versionB_stim.csv,ReadVersion.csv,Read,Read2,CAMP,ADVENTURE,BUFFER4,Buffer,55,55,Study,User,-,,Study/JOL,BUFFER2,1571,,,-1,-1,,,,1
w988425_TLM,vaiok4l18q,"Mediated JOLs",1,56,2024-04-25T16:21:12+00:00,2.1131269931793,3,versionB_stim.csv,ReadVersion.csv,Read,Read2,TREES,GREEN,BUFFER1,Buffer,56,58,Study,User,-,,Study/JOL,BUFFER2,1845,,,-1,-1,,,,1
w988425_TLM,vaiok4l18q,"Mediated JOLs",1,57,2024-04-25T16:21:17+00:00,4.2711660861969,3,versionB_stim.csv,ReadVersion.csv,Read,Read2,MALT,CHOCOLATE,BUFFER2,Buffer,108,108,Study,User,-,,Study/JOL,BUFFER2,4041,,,-1,-1,,,,1
w988425_TLM,vaiok4l18q,"Mediated JOLs",1,58,2024-04-25T16:21:19+00:00,2.5283379554749,3,versionB_stim.csv,ReadVersion.csv,Read,Read2,,,,,,0,Instruct,User,-,"You have completed this section. Please press Enter.",Filler_Instruction,Instruct2,2366,,,-1,-1,,,,1
w988425_TLM,vaiok4l18q,"Mediated JOLs",1,59,2024-04-25T16:23:20+00:00,120.35955691338,3,versionB_stim.csv,ReadVersion.csv,Read,Read2,,,,,,0,FreeRecall,120,120,"Please list the 50 US states in alphabetical order. The task will automatically advance to the next screen after two minutes.",,Filler1,120001,"Alaska Alabama Arkansas Arizona California Idaho Kentuckey Louisiana Mississippi misour Tennessee ",0,11783,117576,0,0,,1
w988425_TLM,vaiok4l18q,"Mediated JOLs",1,60,2024-04-25T16:23:41+00:00,21.922508001328,3,versionB_stim.csv,ReadVersion.csv,Read,Read2,,,,,,0,Instruct,-,10,"You will now be presented with the first word from each of the previously studied item pairs. Please type the missing word. If you do not know the word, you may guess or press Enter to skip forward to the next pair.",,Instruct3,21683,,,-1,-1,,,,1
w988425_TLM,vaiok4l18q,"Mediated JOLs",1,61,2024-04-25T16:23:44+00:00,2.9376609325409,3,versionB_stim.csv,ReadVersion.csv,Read,Read2,BLAZE,FIRE,Study2,F,26,45,Test,User,-,,Recall,Recall1,2732,Fire,100,1699,2230,1,1,,1
w988425_TLM,vaiok4l18q,"Mediated JOLs",1,62,2024-04-25T16:23:51+00:00,6.8008370399475,3,versionB_stim.csv,ReadVersion.csv,Read,Read2,BENCH,HORN,Study2,U,43,36,Test,User,-,,Recall,Recall1,6559,,0,-1,-1,0,0,,1
w988425_TLM,vaiok4l18q,"Mediated JOLs",1,63,2024-04-25T16:24:03+00:00,11.71813416481,3,versionB_stim.csv,ReadVersion.csv,Read,Read2,CHOP,CUT,Study2,F,22,8,Test,User,-,,Recall,Recall1,11504,CUT,100,3067,10437,1,1,,1
w988425_TLM,vaiok4l18q,"Mediated JOLs",1,64,2024-04-25T16:24:09+00:00,6.2283689975739,3,versionB_stim.csv,ReadVersion.csv,Read,Read2,HORNET,STING,Study2,F,30,40,Test,User,-,,Recall,Recall1,6096,STING,100,3097,3990,1,1,,1
w988425_TLM,vaiok4l18q,"Mediated JOLs",1,65,2024-04-25T16:24:14+00:00,5.1513609886169,3,versionB_stim.csv,ReadVersion.csv,Read,Read2,SICK,HIDE,Study2,U,45,37,Test,User,-,,Recall,Recall1,4989,WELL,25,3587,4345,0,0,,1
w988425_TLM,vaiok4l18q,"Mediated JOLs",1,66,2024-04-25T16:24:20+00:00,5.2507238388062,3,versionB_stim.csv,ReadVersion.csv,Read,Read2,SCHOOL,STOP,Study2,M,7,15,Test,User,-,,Recall,Recall1,5016,,0,-1,-1,0,0,,1
w988425_TLM,vaiok4l18q,"Mediated JOLs",1,67,2024-04-25T16:24:26+00:00,6.6683189868927,3,versionB_stim.csv,ReadVersion.csv,Read,Read2,SOAP,DRINK,Study2,M,12,21,Test,User,-,,Recall,Recall1,6453,DRINK,100,3698,5980,1,1,,1
w988425_TLM,vaiok4l18q,"Mediated JOLs",1,68,2024-04-25T16:24:30+00:00,4.122111082077,3,versionB_stim.csv,ReadVersion.csv,Read,Read2,REALITY,ISLAND,Study2,M,9,34,Test,User,-,,Recall,Recall1,3944,ISLAND,100,2236,3031,1,1,,1
w988425_TLM,vaiok4l18q,"Mediated JOLs",1,69,2024-04-25T16:24:39+00:00,8.3684029579163,3,versionB_stim.csv,ReadVersion.csv,Read,Read2,NURSE,LAWYER,Study2,M,11,26,Test,User,-,,Recall,Recall1,8230,LAWYER,100,2244,7430,1,1,,1
w988425_TLM,vaiok4l18q,"Mediated JOLs",1,70,2024-04-25T16:24:45+00:00,6.4021730422974,3,versionB_stim.csv,ReadVersion.csv,Read,Read2,OVEN,BASKET,Study2,M,16,43,Test,User,-,,Recall,Recall1,6201,BAKE,80,2820,3307,0,1,,1
w988425_TLM,vaiok4l18q,"Mediated JOLs",1,71,2024-04-25T16:24:48+00:00,2.6990029811859,3,versionB_stim.csv,ReadVersion.csv,Read,Read2,CHILL,COLD,Study2,F,32,7,Test,User,-,,Recall,Recall1,2321,COLD,100,1535,1914,1,1,,1
w988425_TLM,vaiok4l18q,"Mediated JOLs",1,72,2024-04-25T16:24:51+00:00,2.7761580944061,3,versionB_stim.csv,ReadVersion.csv,Read,Read2,BRIDGE,WATER,Study2,F,35,14,Test,User,-,,Recall,Recall1,2558,WATER,100,1642,2308,1,1,,1
w988425_TLM,vaiok4l18q,"Mediated JOLs",1,73,2024-04-25T16:24:54+00:00,3.8721239566803,3,versionB_stim.csv,ReadVersion.csv,Read,Read2,INCENSE,SMELL,Study2,F,28,16,Test,User,-,,Recall,Recall1,3650,SMELL,100,1728,3320,1,1,,1
w988425_TLM,vaiok4l18q,"Mediated JOLs",1,74,2024-04-25T16:24:58+00:00,3.5915169715881,3,versionB_stim.csv,ReadVersion.csv,Read,Read2,LEAGUE,BASEBALL,Study2,F,29,50,Test,User,-,,Recall,Recall1,3366,BASEBALL,100,1792,3006,1,1,,1
w988425_TLM,vaiok4l18q,"Mediated JOLs",1,75,2024-04-25T16:25:02+00:00,3.4851551055908,3,versionB_stim.csv,ReadVersion.csv,Read,Read2,MIRROR,CHILDREN,Study2,U,49,28,Test,User,-,,Recall,Recall1,3334,CHILD,76.923076923077,2425,3057,0,1,,1
w988425_TLM,vaiok4l18q,"Mediated JOLs",1,76,2024-04-25T16:25:07+00:00,5.3336138725281,3,versionB_stim.csv,ReadVersion.csv,Read,Read2,EYES,SMELL,Study2,M,10,11,Test,User,-,,Recall,Recall1,5125,,0,-1,-1,0,0,,1
w988425_TLM,vaiok4l18q,"Mediated JOLs",1,77,2024-04-25T16:25:13+00:00,6.4672241210938,3,versionB_stim.csv,ReadVersion.csv,Read,Read2,SUMMER,SNOW,Study2,M,6,22,Test,User,-,,Recall,Recall1,6266,SNOW,100,2602,5818,1,1,,1
w988425_TLM,vaiok4l18q,"Mediated JOLs",1,78,2024-04-25T16:25:18+00:00,4.2880618572235,3,versionB_stim.csv,ReadVersion.csv,Read,Read2,WASP,BUG,Study2,F,34,12,Test,User,-,,Recall,Recall1,4095,BUG,100,3326,3674,1,1,,1
w988425_TLM,vaiok4l18q,"Mediated JOLs",1,79,2024-04-25T16:25:20+00:00,2.2268331050873,3,versionB_stim.csv,ReadVersion.csv,Read,Read2,ART,WOLF,Study2,U,38,38,Test,User,-,,Recall,Recall1,2031,,0,-1,-1,0,0,,1
w988425_TLM,vaiok4l18q,"Mediated JOLs",1,80,2024-04-25T16:25:22+00:00,2.4995520114899,3,versionB_stim.csv,ReadVersion.csv,Read,Read2,FEUD,FIGHT,Study2,F,31,20,Test,User,-,,Recall,Recall1,2274,FIGHT,100,1346,1840,1,1,,1
w988425_TLM,vaiok4l18q,"Mediated JOLs",1,81,2024-04-25T16:25:27+00:00,4.9771280288696,3,versionB_stim.csv,ReadVersion.csv,Read,Read2,TRAP,CAVE,Study2,M,15,24,Test,User,-,,Recall,Recall1,4838,STUCK,22.222222222222,3809,4445,0,0,,1
w988425_TLM,vaiok4l18q,"Mediated JOLs",1,82,2024-04-25T16:25:30+00:00,2.815603017807,3,versionB_stim.csv,ReadVersion.csv,Read,Read2,ATTIRE,CLOTHES,Study2,F,24,9,Test,User,-,,Recall,Recall1,2647,CLOTHES,100,1235,2409,1,1,,1
w988425_TLM,vaiok4l18q,"Mediated JOLs",1,83,2024-04-25T16:25:34+00:00,3.7975487709045,3,versionB_stim.csv,ReadVersion.csv,Read,Read2,DOCUMENT,PAPER,Study2,F,27,48,Test,User,-,,Recall,Recall1,3626,PAPER,100,1788,3394,1,1,,1
w988425_TLM,vaiok4l18q,"Mediated JOLs",1,84,2024-04-25T16:25:39+00:00,4.6813461780548,3,versionB_stim.csv,ReadVersion.csv,Read,Read2,WINDOW,KNOB,Study2,M,19,27,Test,User,-,,Recall,Recall1,4546,KNOB,100,2450,3903,1,1,,1
w988425_TLM,vaiok4l18q,"Mediated JOLs",1,85,2024-04-25T16:25:42+00:00,3.6699528694153,3,versionB_stim.csv,ReadVersion.csv,Read,Read2,HEAVY,FEATHER,Study2,M,13,33,Test,User,-,,Recall,Recall1,3375,,0,-1,-1,0,0,,1
w988425_TLM,vaiok4l18q,"Mediated JOLs",1,86,2024-04-25T16:25:46+00:00,4.093759059906,3,versionB_stim.csv,ReadVersion.csv,Read,Read2,VALLEY,PEAK,Study2,M,18,13,Test,User,-,,Recall,Recall1,3881,PEAK,100,1976,2869,1,1,,1
w988425_TLM,vaiok4l18q,"Mediated JOLs",1,87,2024-04-25T16:25:55+00:00,8.4845440387726,3,versionB_stim.csv,ReadVersion.csv,Read,Read2,LEASE,TOIL,Study2,U,46,19,Test,User,-,,Recall,Recall1,8278,,0,-1,-1,0,0,,1
w988425_TLM,vaiok4l18q,"Mediated JOLs",1,88,2024-04-25T16:25:59+00:00,3.6887600421906,3,versionB_stim.csv,ReadVersion.csv,Read,Read2,HAPPY,CAR,Study2,U,37,23,Test,User,-,,Recall,Recall1,3432,SAD,33.333333333333,2706,3091,0,0,,1
w988425_TLM,vaiok4l18q,"Mediated JOLs",1,89,2024-04-25T16:26:02+00:00,3.6924078464508,3,versionB_stim.csv,ReadVersion.csv,Read,Read2,PANTS,COLLAR,Study2,M,8,46,Test,User,-,,Recall,Recall1,3555,COLLAR,100,2442,3320,1,1,,1
w988425_TLM,vaiok4l18q,"Mediated JOLs",1,90,2024-04-25T16:26:04+00:00,2.2764670848846,3,versionB_stim.csv,ReadVersion.csv,Read,Read2,CASH,LEG,Study2,U,50,49,Test,User,-,,Recall,Recall1,2032,,0,-1,-1,0,0,,1
w988425_TLM,vaiok4l18q,"Mediated JOLs",1,91,2024-04-25T16:26:13+00:00,8.4481248855591,3,versionB_stim.csv,ReadVersion.csv,Read,Read2,DIETARY,SACK,Study2,U,42,17,Test,User,-,,Recall,Recall1,8258,NEEDS,22.222222222222,6941,7873,0,0,,1
w988425_TLM,vaiok4l18q,"Mediated JOLs",1,92,2024-04-25T16:26:24+00:00,11.25820016861,3,versionB_stim.csv,ReadVersion.csv,Read,Read2,STRONG,ACCIDENT,Study2,U,39,31,Test,User,-,,Recall,Recall1,11008,WEAK,16.666666666667,3446,9774,0,0,,1
w988425_TLM,vaiok4l18q,"Mediated JOLs",1,93,2024-04-25T16:26:33+00:00,8.5686750411987,3,versionB_stim.csv,ReadVersion.csv,Read,Read2,CHISEL,HAMMER,Study2,F,23,47,Test,User,-,,Recall,Recall1,8404,HAMMER,100,6876,7745,1,1,,1
w988425_TLM,vaiok4l18q,"Mediated JOLs",1,94,2024-04-25T16:26:37+00:00,4.6937818527222,3,versionB_stim.csv,ReadVersion.csv,Read,Read2,RAKE,SEED,Study2,M,14,44,Test,User,-,,Recall,Recall1,4391,LEAVES,40,3258,4177,0,0,,1
w988425_TLM,vaiok4l18q,"Mediated JOLs",1,95,2024-04-25T16:26:40+00:00,2.83536195755,3,versionB_stim.csv,ReadVersion.csv,Read,Read2,PUSH,CLUTTER,Study2,U,41,29,Test,User,-,,Recall,Recall1,2645,PULL,18.181818181818,1654,2301,0,0,,1
w988425_TLM,vaiok4l18q,"Mediated JOLs",1,96,2024-04-25T16:26:53+00:00,12.988517999649,3,versionB_stim.csv,ReadVersion.csv,Read,Read2,RAZOR,MUSCLE,Study2,M,20,18,Test,User,-,,Recall,Recall1,12754,THIGHS,16.666666666667,2029,10232,0,0,,1
w988425_TLM,vaiok4l18q,"Mediated JOLs",1,97,2024-04-25T16:26:56+00:00,2.8703331947327,3,versionB_stim.csv,ReadVersion.csv,Read,Read2,KING,VASE,Study2,U,36,39,Test,User,-,,Recall,Recall1,2622,VASE,100,1943,2449,1,1,,1
w988425_TLM,vaiok4l18q,"Mediated JOLs",1,98,2024-04-25T16:27:03+00:00,7.2143199443817,3,versionB_stim.csv,ReadVersion.csv,Read,Read2,HERD,COW,Study2,F,33,30,Test,User,-,,Recall,Recall1,6943,SHEEP,0,4922,5486,0,0,,1
w988425_TLM,vaiok4l18q,"Mediated JOLs",1,99,2024-04-25T16:27:08+00:00,4.4602680206299,3,versionB_stim.csv,ReadVersion.csv,Read,Read2,ARTERY,BRONZE,Study2,U,48,51,Test,User,-,,Recall,Recall1,4332,BRONZE,100,2907,3964,1,1,,1
w988425_TLM,vaiok4l18q,"Mediated JOLs",1,100,2024-04-25T16:27:10+00:00,2.4448018074036,3,versionB_stim.csv,ReadVersion.csv,Read,Read2,SUGAR,RIDDLE,Study2,U,40,42,Test,User,-,,Recall,Recall1,2198,,0,-1,-1,0,0,,1
w988425_TLM,vaiok4l18q,"Mediated JOLs",1,101,2024-04-25T16:27:14+00:00,3.6305680274963,3,versionB_stim.csv,ReadVersion.csv,Read,Read2,CACTUS,PLANT,Study2,F,21,32,Test,User,-,,Recall,Recall1,3486,PLANT,100,1312,3217,1,1,,1
w988425_TLM,vaiok4l18q,"Mediated JOLs",1,102,2024-04-25T16:27:18+00:00,4.0918600559235,3,versionB_stim.csv,ReadVersion.csv,Read,Read2,GRILL,THIGH,Study2,M,17,10,Test,User,-,,Recall,Recall1,3885,THIGH,100,1697,2167,1,1,,1
w988425_TLM,vaiok4l18q,"Mediated JOLs",1,103,2024-04-25T16:27:24+00:00,6.3824200630188,3,versionB_stim.csv,ReadVersion.csv,Read,Read2,BOTH,OUNCE,Study2,U,47,35,Test,User,-,,Recall,Recall1,6166,,0,4743,4943,0,0,,1
w988425_TLM,vaiok4l18q,"Mediated JOLs",1,104,2024-04-25T16:27:28+00:00,3.22385597229,3,versionB_stim.csv,ReadVersion.csv,Read,Read2,DEATH,BUSINESS,Study2,U,44,25,Test,User,-,,Recall,Recall1,3048,LIFE,33.333333333333,1674,2137,0,0,,1
w988425_TLM,vaiok4l18q,"Mediated JOLs",1,105,2024-04-25T16:27:31+00:00,3.0204510688782,3,versionB_stim.csv,ReadVersion.csv,Read,Read2,CHERRY,RED,Study2,F,25,41,Test,User,-,,Recall,Recall1,2777,RED,100,1710,2234,1,1,,1
w988425_TLM,vaiok4l18q,"Mediated JOLs",1,106,2024-04-25T16:27:51+00:00,20.210970878601,3,versionB_stim.csv,ReadVersion.csv,Read,Read2,,,,,,0,Instruct,-,10,"You will now be presented with a new set of word pairs. Please study each pair. Remember that your memory will be tested! When finished, press Enter to move to the next pair.",Initial_Instruct,Instruct4,19880,,,-1,-1,,,,1
w988425_TLM,vaiok4l18q,"Mediated JOLs",1,107,2024-04-25T16:27:53+00:00,2.020318031311,3,versionB_stim.csv,ReadVersion.csv,Read,Read2,,,,,,0,Instruct,User,-,"Press Enter when you are readty to begin",,Instruct11,1886,,,-1,-1,,,,1
w988425_TLM,vaiok4l18q,"Mediated JOLs",1,108,2024-04-25T16:28:03+00:00,10.189583063126,3,versionB_stim.csv,ReadVersion.csv,Read,Read2,PITCHER,CATCHER,BUFFER1,Buffer,57,61,Study,User,-,,Study/JOL,BUFFER2,10022,,,-1,-1,,,,1
w988425_TLM,vaiok4l18q,"Mediated JOLs",1,109,2024-04-25T16:28:09+00:00,6.18332695961,3,versionB_stim.csv,ReadVersion.csv,Read,Read2,CARROT,POTATO,BUFFER4,Buffer,51,52,Study,User,-,,Study/JOL,BUFFER2,5970,,,-1,-1,,,,1
w988425_TLM,vaiok4l18q,"Mediated JOLs",1,110,2024-04-25T16:28:18+00:00,8.3545889854431,3,versionB_stim.csv,ReadVersion.csv,Read,Read2,ICE,FROZEN,BUFFER4,Buffer,54,54,Study,User,-,,Study/JOL,BUFFER2,8179,,,-1,-1,,,,1
w988425_TLM,vaiok4l18q,"Mediated JOLs",1,111,2024-04-25T16:28:24+00:00,6.9141371250153,3,versionB_stim.csv,ReadVersion.csv,Read,Read2,NOODLE,STRING,BUFFER4,Buffer,52,53,Study,User,-,,Study/JOL,BUFFER2,6774,,,-1,-1,,,,1
w988425_TLM,vaiok4l18q,"Mediated JOLs",1,112,2024-04-25T16:28:34+00:00,9.2442109584808,3,versionB_stim.csv,ReadVersion.csv,Read,Read2,SHRIMP,FISH,BUFFER4,Buffer,53,56,Study,User,-,,Study/JOL,BUFFER2,9083,,,-1,-1,,,,1
w988425_TLM,vaiok4l18q,"Mediated JOLs",1,113,2024-04-25T16:28:41+00:00,7.300360918045,3,versionB_stim.csv,ReadVersion.csv,Read,Read2,BIRTHDAY,PIE,Study1,M,64,71,Study,User,-,,Study/JOL,"Study Phase2",7174,,,-1,-1,,,,1
w988425_TLM,vaiok4l18q,"Mediated JOLs",1,114,2024-04-25T16:28:45+00:00,4.4389879703522,3,versionB_stim.csv,ReadVersion.csv,Read,Read2,MULE,DONKEY,Study1,F,79,66,Study,User,-,,Study/JOL,"Study Phase2",4119,,,-1,-1,,,,1
w988425_TLM,vaiok4l18q,"Mediated JOLs",1,115,2024-04-25T16:28:50+00:00,4.2683811187744,3,versionB_stim.csv,ReadVersion.csv,Read,Read2,WAR,QUIET,Study1,M,63,86,Study,User,-,,Study/JOL,"Study Phase2",4092,,,-1,-1,,,,1
w988425_TLM,vaiok4l18q,"Mediated JOLs",1,116,2024-04-25T16:28:58+00:00,8.7416908740997,3,versionB_stim.csv,ReadVersion.csv,Read,Read2,BAT,BOUNCE,Study1,M,67,106,Study,User,-,,Study/JOL,"Study Phase2",8538,,,-1,-1,,,,1
w988425_TLM,vaiok4l18q,"Mediated JOLs",1,117,2024-04-25T16:29:05+00:00,6.3557889461517,3,versionB_stim.csv,ReadVersion.csv,Read,Read2,HORSE,WHEEL,Study1,M,69,90,Study,User,-,,Study/JOL,"Study Phase2",6238,,,-1,-1,,,,1
w988425_TLM,vaiok4l18q,"Mediated JOLs",1,118,2024-04-25T16:29:16+00:00,11.533191204071,3,versionB_stim.csv,ReadVersion.csv,Read,Read2,FUZZY,BANG,Study1,U,105,81,Study,User,-,,Study/JOL,"Study Phase2",11372,,,-1,-1,,,,1
w988425_TLM,vaiok4l18q,"Mediated JOLs",1,119,2024-04-25T16:29:19+00:00,2.7731199264526,3,versionB_stim.csv,ReadVersion.csv,Read,Read2,LISTEN,FICTION,Study1,U,99,92,Study,User,-,,Study/JOL,"Study Phase2",2568,,,-1,-1,,,,1
w988425_TLM,vaiok4l18q,"Mediated JOLs",1,120,2024-04-25T16:29:33+00:00,13.434866905212,3,versionB_stim.csv,ReadVersion.csv,Read,Read2,CAKE,HAND,Study1,U,104,64,Study,User,-,,Study/JOL,"Study Phase2",13244,,,-1,-1,,,,1
w988425_TLM,vaiok4l18q,"Mediated JOLs",1,121,2024-04-25T16:29:46+00:00,13.511669158936,3,versionB_stim.csv,ReadVersion.csv,Read,Read2,VEHICLE,CHARM,Study1,U,95,84,Study,User,-,,Study/JOL,"Study Phase2",13337,,,-1,-1,,,,1
w988425_TLM,vaiok4l18q,"Mediated JOLs",1,122,2024-04-25T16:29:53+00:00,6.7607228755951,3,versionB_stim.csv,ReadVersion.csv,Read,Read2,MAZE,PHONE,Study1,U,97,96,Study,User,-,,Study/JOL,"Study Phase2",6578,,,-1,-1,,,,1
w988425_TLM,vaiok4l18q,"Mediated JOLs",1,123,2024-04-25T16:29:58+00:00,5.4556970596313,3,versionB_stim.csv,ReadVersion.csv,Read,Read2,TEMPERATURE,MORNING,Study1,U,103,80,Study,User,-,,Study/JOL,"Study Phase2",5166,,,-1,-1,,,,1
w988425_TLM,vaiok4l18q,"Mediated JOLs",1,124,2024-04-25T16:30:02+00:00,3.4807479381561,3,versionB_stim.csv,ReadVersion.csv,Read,Read2,CREDIT,CARD,Study1,F,88,93,Study,User,-,,Study/JOL,"Study Phase2",3335,,,-1,-1,,,,1
w988425_TLM,vaiok4l18q,"Mediated JOLs",1,125,2024-04-25T16:30:07+00:00,4.7721009254456,3,versionB_stim.csv,ReadVersion.csv,Read,Read2,SOON,BELT,Study1,U,101,83,Study,User,-,,Study/JOL,"Study Phase2",4634,,,-1,-1,,,,1
w988425_TLM,vaiok4l18q,"Mediated JOLs",1,126,2024-04-25T16:30:10+00:00,3.7433462142944,3,versionB_stim.csv,ReadVersion.csv,Read,Read2,WORD,SENTENCE,Study1,F,82,74,Study,User,-,,Study/JOL,"Study Phase2",3454,,,-1,-1,,,,1
w988425_TLM,vaiok4l18q,"Mediated JOLs",1,127,2024-04-25T16:30:14+00:00,3.8344099521637,3,versionB_stim.csv,ReadVersion.csv,Read,Read2,NAP,SLEEP,Study1,F,84,72,Study,User,-,,Study/JOL,"Study Phase2",3605,,,-1,-1,,,,1
w988425_TLM,vaiok4l18q,"Mediated JOLs",1,128,2024-04-25T16:30:20+00:00,6.294214963913,3,versionB_stim.csv,ReadVersion.csv,Read,Read2,STRETCH,CLOTH,Study1,U,92,65,Study,User,-,,Study/JOL,"Study Phase2",5971,,,-1,-1,,,,1
w988425_TLM,vaiok4l18q,"Mediated JOLs",1,129,2024-04-25T16:30:36+00:00,16.007966041565,3,versionB_stim.csv,ReadVersion.csv,Read,Read2,HARD,COTTON,Study1,M,75,82,Study,User,-,,Study/JOL,"Study Phase2",15869,,,-1,-1,,,,1
w988425_TLM,vaiok4l18q,"Mediated JOLs",1,130,2024-04-25T16:30:39+00:00,2.2059798240662,3,versionB_stim.csv,ReadVersion.csv,Read,Read2,HYGIENE,CLEAN,Study1,F,83,69,Study,User,-,,Study/JOL,"Study Phase2",2070,,,-1,-1,,,,1
w988425_TLM,vaiok4l18q,"Mediated JOLs",1,131,2024-04-25T16:30:45+00:00,6.0564520359039,3,versionB_stim.csv,ReadVersion.csv,Read,Read2,TREE,SYRUP,Study1,M,66,103,Study,User,-,,Study/JOL,"Study Phase2",5893,,,-1,-1,,,,1
w988425_TLM,vaiok4l18q,"Mediated JOLs",1,132,2024-04-25T16:30:48+00:00,3.7221150398254,3,versionB_stim.csv,ReadVersion.csv,Read,Read2,TUNA,FISH,Study1,F,90,70,Study,User,-,,Study/JOL,"Study Phase2",3594,,,-1,-1,,,,1
w988425_TLM,vaiok4l18q,"Mediated JOLs",1,133,2024-04-25T16:30:54+00:00,5.8390319347382,3,versionB_stim.csv,ReadVersion.csv,Read,Read2,SHELL,SHAKE,Study1,U,98,102,Study,User,-,,Study/JOL,"Study Phase2",5648,,,-1,-1,,,,1
w988425_TLM,vaiok4l18q,"Mediated JOLs",1,134,2024-04-25T16:30:56+00:00,1.8150300979614,3,versionB_stim.csv,ReadVersion.csv,Read,Read2,MULE,DONKEY,Study1,F,85,62,Study,User,-,,Study/JOL,"Study Phase2",1620,,,-1,-1,,,,1
w988425_TLM,vaiok4l18q,"Mediated JOLs",1,135,2024-04-25T16:31:00+00:00,4.1282279491425,3,versionB_stim.csv,ReadVersion.csv,Read,Read2,WEDDING,FINGER,Study1,M,72,85,Study,User,-,,Study/JOL,"Study Phase2",3916,,,-1,-1,,,,1
w988425_TLM,vaiok4l18q,"Mediated JOLs",1,136,2024-04-25T16:31:07+00:00,7.1182301044464,3,versionB_stim.csv,ReadVersion.csv,Read,Read2,ROUGH,SILK,Study1,M,65,105,Study,User,-,,Study/JOL,"Study Phase2",6928,,,-1,-1,,,,1
w988425_TLM,vaiok4l18q,"Mediated JOLs",1,137,2024-04-25T16:31:12+00:00,4.38507604599,3,versionB_stim.csv,ReadVersion.csv,Read,Read2,SWAN,BIRD,Study1,F,81,63,Study,User,-,,Study/JOL,"Study Phase2",4276,,,-1,-1,,,,1
w988425_TLM,vaiok4l18q,"Mediated JOLs",1,138,2024-04-25T16:31:19+00:00,7.209625005722,3,versionB_stim.csv,ReadVersion.csv,Read,Read2,BEACH,BOX,Study1,M,62,73,Study,User,-,,Study/JOL,"Study Phase2",7051,,,-1,-1,,,,1
w988425_TLM,vaiok4l18q,"Mediated JOLs",1,139,2024-04-25T16:31:21+00:00,2.5341730117798,3,versionB_stim.csv,ReadVersion.csv,Read,Read2,DAY,DARK,Study1,M,73,78,Study,User,-,,Study/JOL,"Study Phase2",2311,,,-1,-1,,,,1
w988425_TLM,vaiok4l18q,"Mediated JOLs",1,140,2024-04-25T16:31:34+00:00,12.286014795303,3,versionB_stim.csv,ReadVersion.csv,Read,Read2,TOOTH,HAIR,Study1,M,74,94,Study,User,-,,Study/JOL,"Study Phase2",11567,,,-1,-1,,,,1
w988425_TLM,vaiok4l18q,"Mediated JOLs",1,141,2024-04-25T16:31:40+00:00,5.9945011138916,3,versionB_stim.csv,ReadVersion.csv,Read,Read2,CRACKLE,ELECTION,Study1,U,94,75,Study,User,-,,Study/JOL,"Study Phase2",5862,,,-1,-1,,,,1
w988425_TLM,vaiok4l18q,"Mediated JOLs",1,142,2024-04-25T16:31:48+00:00,7.9454538822174,3,versionB_stim.csv,ReadVersion.csv,Read,Read2,MEAT,KEYS,Study1,U,96,88,Study,User,-,,Study/JOL,"Study Phase2",7730,,,-1,-1,,,,1
w988425_TLM,vaiok4l18q,"Mediated JOLs",1,143,2024-04-25T16:31:52+00:00,4.0891590118408,3,versionB_stim.csv,ReadVersion.csv,Read,Read2,SIGN,TICK,Study1,U,102,101,Study,User,-,,Study/JOL,"Study Phase2",3933,,,-1,-1,,,,1
w988425_TLM,vaiok4l18q,"Mediated JOLs",1,144,2024-04-25T16:31:58+00:00,6.1502411365509,3,versionB_stim.csv,ReadVersion.csv,Read,Read2,WAGE,MONEY,Study1,F,77,68,Study,User,-,,Study/JOL,"Study Phase2",6008,,,-1,-1,,,,1
w988425_TLM,vaiok4l18q,"Mediated JOLs",1,145,2024-04-25T16:32:01+00:00,3.2200269699097,3,versionB_stim.csv,ReadVersion.csv,Read,Read2,SIP,DRINK,Study1,F,87,79,Study,User,-,,Study/JOL,"Study Phase2",3079,,,-1,-1,,,,1
w988425_TLM,vaiok4l18q,"Mediated JOLs",1,146,2024-04-25T16:32:07+00:00,5.6858968734741,3,versionB_stim.csv,ReadVersion.csv,Read,Read2,LITTER,TRASH,Study1,F,76,104,Study,User,-,,Study/JOL,"Study Phase2",5483,,,-1,-1,,,,1
w988425_TLM,vaiok4l18q,"Mediated JOLs",1,147,2024-04-25T16:32:13+00:00,6.0870900154114,3,versionB_stim.csv,ReadVersion.csv,Read,Read2,KEYS,ROD,Study1,U,100,99,Study,User,-,,Study/JOL,"Study Phase2",5944,,,-1,-1,,,,1
w988425_TLM,vaiok4l18q,"Mediated JOLs",1,148,2024-04-25T16:32:20+00:00,7.1805121898651,3,versionB_stim.csv,ReadVersion.csv,Read,Read2,AFFECTION,LOVE,Study1,F,86,100,Study,User,-,,Study/JOL,"Study Phase2",7019,,,-1,-1,,,,1
w988425_TLM,vaiok4l18q,"Mediated JOLs",1,149,2024-04-25T16:32:28+00:00,7.8326389789581,3,versionB_stim.csv,ReadVersion.csv,Read,Read2,CIRCLE,DANCE,Study1,M,68,98,Study,User,-,,Study/JOL,"Study Phase2",7644,,,-1,-1,,,,1
w988425_TLM,vaiok4l18q,"Mediated JOLs",1,150,2024-04-25T16:32:31+00:00,3.307473897934,3,versionB_stim.csv,ReadVersion.csv,Read,Read2,CRY,BOTTLE,Study1,M,71,97,Study,User,-,,Study/JOL,"Study Phase2",3033,,,-1,-1,,,,1
w988425_TLM,vaiok4l18q,"Mediated JOLs",1,151,2024-04-25T16:32:36+00:00,4.7453119754791,3,versionB_stim.csv,ReadVersion.csv,Read,Read2,LION,STRIPES,Study1,M,61,91,Study,User,-,,Study/JOL,"Study Phase2",4529,,,-1,-1,,,,1
w988425_TLM,vaiok4l18q,"Mediated JOLs",1,152,2024-04-25T16:32:42+00:00,5.5666511058807,3,versionB_stim.csv,ReadVersion.csv,Read,Read2,MIRROR,MAROON,Study1,U,91,87,Study,User,-,,Study/JOL,"Study Phase2",5396,,,-1,-1,,,,1
w988425_TLM,vaiok4l18q,"Mediated JOLs",1,153,2024-04-25T16:32:46+00:00,4.5782289505005,3,versionB_stim.csv,ReadVersion.csv,Read,Read2,ORCHID,FLOWER,Study1,F,89,76,Study,User,-,,Study/JOL,"Study Phase2",4332,,,-1,-1,,,,1
w988425_TLM,vaiok4l18q,"Mediated JOLs",1,154,2024-04-25T16:32:50+00:00,3.7581009864807,3,versionB_stim.csv,ReadVersion.csv,Read,Read2,GIVE,STEAK,Study1,U,93,89,Study,User,-,,Study/JOL,"Study Phase2",3618,,,-1,-1,,,,1
w988425_TLM,vaiok4l18q,"Mediated JOLs",1,155,2024-04-25T16:32:52+00:00,1.976576089859,3,versionB_stim.csv,ReadVersion.csv,Read,Read2,ROOT,PLANT,Study1,F,80,95,Study,User,-,,Study/JOL,"Study Phase2",1788,,,-1,-1,,,,1
w988425_TLM,vaiok4l18q,"Mediated JOLs",1,156,2024-04-25T16:32:57+00:00,4.8894259929657,3,versionB_stim.csv,ReadVersion.csv,Read,Read2,SCALP,HEAD,Study1,F,78,67,Study,User,-,,Study/JOL,"Study Phase2",4720,,,-1,-1,,,,1
w988425_TLM,vaiok4l18q,"Mediated JOLs",1,157,2024-04-25T16:33:01+00:00,3.8580329418182,3,versionB_stim.csv,ReadVersion.csv,Read,Read2,CEILING,CARPET,Study1,M,70,77,Study,User,-,,Study/JOL,"Study Phase2",3665,,,-1,-1,,,,1
w988425_TLM,vaiok4l18q,"Mediated JOLs",1,158,2024-04-25T16:33:05+00:00,4.5002789497375,3,versionB_stim.csv,ReadVersion.csv,Read,Read2,SHERRIF,POLICE,BUFFER2,Buffer,107,107,Study,User,-,,Study/JOL,BUFFER2,4262,,,-1,-1,,,,1
w988425_TLM,vaiok4l18q,"Mediated JOLs",1,159,2024-04-25T16:33:13+00:00,8.3315660953522,3,versionB_stim.csv,ReadVersion.csv,Read,Read2,SCARE,FRIGHT,BUFFER1,Buffer,59,60,Study,User,-,,Study/JOL,BUFFER2,8191,,,-1,-1,,,,1
w988425_TLM,vaiok4l18q,"Mediated JOLs",1,160,2024-04-25T16:33:16+00:00,3.0265188217163,3,versionB_stim.csv,ReadVersion.csv,Read,Read2,PEANUT,BUTTER,BUFFER1,Buffer,58,57,Study,User,-,,Study/JOL,BUFFER2,2826,,,-1,-1,,,,1
w988425_TLM,vaiok4l18q,"Mediated JOLs",1,161,2024-04-25T16:33:22+00:00,5.4681742191315,3,versionB_stim.csv,ReadVersion.csv,Read,Read2,MOON,SPACE,BUFFER2,Buffer,109,110,Study,User,-,,Study/JOL,BUFFER2,5341,,,-1,-1,,,,1
w988425_TLM,vaiok4l18q,"Mediated JOLs",1,162,2024-04-25T16:33:29+00:00,7.4456079006195,3,versionB_stim.csv,ReadVersion.csv,Read,Read2,SPACE,JAM,BUFFER1,Buffer,60,59,Study,User,-,,Study/JOL,BUFFER2,7251,,,-1,-1,,,,1
w988425_TLM,vaiok4l18q,"Mediated JOLs",1,163,2024-04-25T16:33:31+00:00,1.2064869403839,3,versionB_stim.csv,ReadVersion.csv,Read,Read2,,,,,,0,Instruct,User,-,"You have completed this section. Please press Enter.",Filler_Instruction,Instruct2,984,,,-1,-1,,,,1
w988425_TLM,vaiok4l18q,"Mediated JOLs",1,164,2024-04-25T16:35:31+00:00,120.39569616318,3,versionB_stim.csv,ReadVersion.csv,Read,Read2,,,,,,0,FreeRecall,120,120,"Please list the 50 US states in alphabetical order. The task will automatically advance to the next screen after two minutes.",,Filler1,120012,"Alaska Alabama Arkansas Arizona Idaho Kentucky Louisiana Michigan Mississippi Nevada New Mexico ",0,5676,111163,0,0,,1
w988425_TLM,vaiok4l18q,"Mediated JOLs",1,165,2024-04-25T16:35:47+00:00,15.986222982407,3,versionB_stim.csv,ReadVersion.csv,Read,Read2,,,,,,0,Instruct,-,10,"You will now be presented with the first word from each of the previously studied item pairs. Please type the missing word. If you do not know the word, you may guess or press Enter to skip forward to the next pair.",,Instruct3,15790,,,-1,-1,,,,1
w988425_TLM,vaiok4l18q,"Mediated JOLs",1,166,2024-04-25T16:35:52+00:00,5.3975598812103,3,versionB_stim.csv,ReadVersion.csv,Read,Read2,SWAN,BIRD,Study1,F,81,63,Test,User,-,,Recall,Recall2,5132,BIRD,100,4170,4664,1,1,,1
w988425_TLM,vaiok4l18q,"Mediated JOLs",1,167,2024-04-25T16:35:55+00:00,2.8789079189301,3,versionB_stim.csv,ReadVersion.csv,Read,Read2,DAY,DARK,Study1,M,73,78,Test,User,-,,Recall,Recall2,2666,DARK,100,1718,2290,1,1,,1
w988425_TLM,vaiok4l18q,"Mediated JOLs",1,168,2024-04-25T16:35:59+00:00,4.0943551063538,3,versionB_stim.csv,ReadVersion.csv,Read,Read2,CEILING,CARPET,Study1,M,70,77,Test,User,-,,Recall,Recall2,3890,CARPET,100,2218,3356,1,1,,1
w988425_TLM,vaiok4l18q,"Mediated JOLs",1,169,2024-04-25T16:36:06+00:00,6.3923161029816,3,versionB_stim.csv,ReadVersion.csv,Read,Read2,CAKE,HAND,Study1,U,104,64,Test,User,-,,Recall,Recall2,6261,,0,-1,-1,0,0,,1
w988425_TLM,vaiok4l18q,"Mediated JOLs",1,170,2024-04-25T16:36:09+00:00,3.0471658706665,3,versionB_stim.csv,ReadVersion.csv,Read,Read2,NAP,SLEEP,Study1,F,84,72,Test,User,-,,Recall,Recall2,2915,SLEEP,100,1735,2319,1,1,,1
w988425_TLM,vaiok4l18q,"Mediated JOLs",1,171,2024-04-25T16:36:11+00:00,2.4617369174957,3,versionB_stim.csv,ReadVersion.csv,Read,Read2,TUNA,FISH,Study1,F,90,70,Test,User,-,,Recall,Recall2,2187,FISH,100,1388,1840,1,1,,1
w988425_TLM,vaiok4l18q,"Mediated JOLs",1,172,2024-04-25T16:36:15+00:00,3.2647120952606,3,versionB_stim.csv,ReadVersion.csv,Read,Read2,MIRROR,MAROON,Study1,U,91,87,Test,User,-,,Recall,Recall2,3103,MAROON,100,1658,2514,1,1,,1
w988425_TLM,vaiok4l18q,"Mediated JOLs",1,173,2024-04-25T16:36:24+00:00,9.2359828948975,3,versionB_stim.csv,ReadVersion.csv,Read,Read2,CRACKLE,ELECTION,Study1,U,94,75,Test,User,-,,Recall,Recall2,9049,BANG,16.666666666667,8091,8525,0,0,,1
w988425_TLM,vaiok4l18q,"Mediated JOLs",1,174,2024-04-25T16:36:27+00:00,3.1468632221222,3,versionB_stim.csv,ReadVersion.csv,Read,Read2,LION,STRIPES,Study1,M,61,91,Test,User,-,,Recall,Recall2,2872,STRIPES,100,1443,2639,1,1,,1
w988425_TLM,vaiok4l18q,"Mediated JOLs",1,175,2024-04-25T16:36:32+00:00,5.0727918148041,3,versionB_stim.csv,ReadVersion.csv,Read,Read2,LISTEN,FICTION,Study1,U,99,92,Test,User,-,,Recall,Recall2,4784,FICITON,85.714285714286,3477,4309,0,1,,1
w988425_TLM,vaiok4l18q,"Mediated JOLs",1,176,2024-04-25T16:36:36+00:00,4.1548190116882,3,versionB_stim.csv,ReadVersion.csv,Read,Read2,STRETCH,CLOTH,Study1,U,92,65,Test,User,-,,Recall,Recall2,3925,,0,-1,-1,0,0,,1
w988425_TLM,vaiok4l18q,"Mediated JOLs",1,177,2024-04-25T16:36:45+00:00,9.2702350616455,3,versionB_stim.csv,ReadVersion.csv,Read,Read2,BEACH,BOX,Study1,M,62,73,Test,User,-,,Recall,Recall2,9128,BENCH,25,4228,8602,0,0,,1
w988425_TLM,vaiok4l18q,"Mediated JOLs",1,178,2024-04-25T16:36:48+00:00,2.7167649269104,3,versionB_stim.csv,ReadVersion.csv,Read,Read2,ROOT,PLANT,Study1,F,80,95,Test,User,-,,Recall,Recall2,2496,PLANT,100,1376,2281,1,1,,1
w988425_TLM,vaiok4l18q,"Mediated JOLs",1,179,2024-04-25T16:36:51+00:00,3.0413961410522,3,versionB_stim.csv,ReadVersion.csv,Read,Read2,HYGIENE,CLEAN,Study1,F,83,69,Test,User,-,,Recall,Recall2,2750,CLEAN,100,1492,2190,1,1,,1
w988425_TLM,vaiok4l18q,"Mediated JOLs",1,180,2024-04-25T16:36:54+00:00,3.0448138713837,3,versionB_stim.csv,ReadVersion.csv,Read,Read2,LITTER,TRASH,Study1,F,76,104,Test,User,-,,Recall,Recall2,2853,TRASH,100,1227,2126,1,1,,1
w988425_TLM,vaiok4l18q,"Mediated JOLs",1,181,2024-04-25T16:37:08+00:00,13.8255879879,3,versionB_stim.csv,ReadVersion.csv,Read,Read2,KEYS,ROD,Study1,U,100,99,Test,User,-,,Recall,Recall2,13601,MEAT,0,8016,12949,0,0,,1
w988425_TLM,vaiok4l18q,"Mediated JOLs",1,182,2024-04-25T16:37:14+00:00,6.4127850532532,3,versionB_stim.csv,ReadVersion.csv,Read,Read2,WORD,SENTENCE,Study1,F,82,74,Test,User,-,,Recall,Recall2,6207,SENTENCE,100,3786,5257,1,1,,1
w988425_TLM,vaiok4l18q,"Mediated JOLs",1,183,2024-04-25T16:37:20+00:00,5.4342310428619,3,versionB_stim.csv,ReadVersion.csv,Read,Read2,MAZE,PHONE,Study1,U,97,96,Test,User,-,,Recall,Recall2,4861,PHONE,100,2614,3347,1,1,,1
w988425_TLM,vaiok4l18q,"Mediated JOLs",1,184,2024-04-25T16:37:23+00:00,3.5824558734894,3,versionB_stim.csv,ReadVersion.csv,Read,Read2,WEDDING,FINGER,Study1,M,72,85,Test,User,-,,Recall,Recall2,3328,FINGER,100,2093,2851,1,1,,1
w988425_TLM,vaiok4l18q,"Mediated JOLs",1,185,2024-04-25T16:37:26+00:00,2.4671170711517,3,versionB_stim.csv,ReadVersion.csv,Read,Read2,ORCHID,FLOWER,Study1,F,89,76,Test,User,-,,Recall,Recall2,2316,FLOWER,100,1369,2031,1,1,,1
w988425_TLM,vaiok4l18q,"Mediated JOLs",1,186,2024-04-25T16:37:31+00:00,5.1812951564789,3,versionB_stim.csv,ReadVersion.csv,Read,Read2,MEAT,KEYS,Study1,U,96,88,Test,User,-,,Recall,Recall2,4932,KEYS,100,1821,3025,1,1,,1
w988425_TLM,vaiok4l18q,"Mediated JOLs",1,187,2024-04-25T16:37:35+00:00,4.2428338527679,3,versionB_stim.csv,ReadVersion.csv,Read,Read2,SIGN,TICK,Study1,U,102,101,Test,User,-,,Recall,Recall2,4068,,0,-1,-1,0,0,,1
w988425_TLM,vaiok4l18q,"Mediated JOLs",1,188,2024-04-25T16:37:38+00:00,2.4662759304047,3,versionB_stim.csv,ReadVersion.csv,Read,Read2,CREDIT,CARD,Study1,F,88,93,Test,User,-,,Recall,Recall2,2334,CARD,100,1447,2093,1,1,,1
w988425_TLM,vaiok4l18q,"Mediated JOLs",1,189,2024-04-25T16:37:44+00:00,5.743705034256,3,versionB_stim.csv,ReadVersion.csv,Read,Read2,CRY,BOTTLE,Study1,M,71,97,Test,User,-,,Recall,Recall2,5483,CHILD,18.181818181818,2979,4934,0,0,,1
w988425_TLM,vaiok4l18q,"Mediated JOLs",1,190,2024-04-25T16:37:48+00:00,4.1250870227814,3,versionB_stim.csv,ReadVersion.csv,Read,Read2,TEMPERATURE,MORNING,Study1,U,103,80,Test,User,-,,Recall,Recall2,3879,MORNING,100,2030,3353,1,1,,1
w988425_TLM,vaiok4l18q,"Mediated JOLs",1,191,2024-04-25T16:37:51+00:00,3.2210359573364,3,versionB_stim.csv,ReadVersion.csv,Read,Read2,AFFECTION,LOVE,Study1,F,86,100,Test,User,-,,Recall,Recall2,3021,LOVE,100,2015,2473,1,1,,1
w988425_TLM,vaiok4l18q,"Mediated JOLs",1,192,2024-04-25T16:37:55+00:00,3.9103741645813,3,versionB_stim.csv,ReadVersion.csv,Read,Read2,HARD,COTTON,Study1,M,75,82,Test,User,-,,Recall,Recall2,3643,SOFT,40,2763,3254,0,0,,1
w988425_TLM,vaiok4l18q,"Mediated JOLs",1,193,2024-04-25T16:37:59+00:00,3.882180929184,3,versionB_stim.csv,ReadVersion.csv,Read,Read2,FUZZY,BANG,Study1,U,105,81,Test,User,-,,Recall,Recall2,3638,,0,-1,-1,0,0,,1
w988425_TLM,vaiok4l18q,"Mediated JOLs",1,194,2024-04-25T16:38:03+00:00,4.3736960887909,3,versionB_stim.csv,ReadVersion.csv,Read,Read2,HORSE,WHEEL,Study1,M,69,90,Test,User,-,,Recall,Recall2,4138,,0,-1,-1,0,0,,1
w988425_TLM,vaiok4l18q,"Mediated JOLs",1,195,2024-04-25T16:38:07+00:00,4.0561618804932,3,versionB_stim.csv,ReadVersion.csv,Read,Read2,SHELL,SHAKE,Study1,U,98,102,Test,User,-,,Recall,Recall2,3775,SEA,50,2875,3565,0,0,,1
w988425_TLM,vaiok4l18q,"Mediated JOLs",1,196,2024-04-25T16:38:10+00:00,2.6152949333191,3,versionB_stim.csv,ReadVersion.csv,Read,Read2,WAGE,MONEY,Study1,F,77,68,Test,User,-,,Recall,Recall2,2459,MONEY,100,1295,2017,1,1,,1
w988425_TLM,vaiok4l18q,"Mediated JOLs",1,197,2024-04-25T16:38:14+00:00,3.8311522006989,3,versionB_stim.csv,ReadVersion.csv,Read,Read2,BIRTHDAY,PIE,Study1,M,64,71,Test,User,-,,Recall,Recall2,3642,PIE,100,3026,3354,1,1,,1
w988425_TLM,vaiok4l18q,"Mediated JOLs",1,198,2024-04-25T16:38:16+00:00,2.6372349262238,3,versionB_stim.csv,ReadVersion.csv,Read,Read2,GIVE,STEAK,Study1,U,93,89,Test,User,-,,Recall,Recall2,2486,TAKE,66.666666666667,1527,2141,0,0,,1
w988425_TLM,vaiok4l18q,"Mediated JOLs",1,199,2024-04-25T16:38:18+00:00,2.0908479690552,3,versionB_stim.csv,ReadVersion.csv,Read,Read2,VEHICLE,CHARM,Study1,U,95,84,Test,User,-,,Recall,Recall2,1852,,0,-1,-1,0,0,,1
w988425_TLM,vaiok4l18q,"Mediated JOLs",1,200,2024-04-25T16:38:21+00:00,2.7433140277863,3,versionB_stim.csv,ReadVersion.csv,Read,Read2,SCALP,HEAD,Study1,F,78,67,Test,User,-,,Recall,Recall2,2421,HEAD,100,1731,2223,1,1,,1
w988425_TLM,vaiok4l18q,"Mediated JOLs",1,201,2024-04-25T16:38:24+00:00,3.1817128658295,3,versionB_stim.csv,ReadVersion.csv,Read,Read2,TOOTH,HAIR,Study1,M,74,94,Test,User,-,,Recall,Recall2,2937,HAIR,100,2193,2596,1,1,,1
w988425_TLM,vaiok4l18q,"Mediated JOLs",1,202,2024-04-25T16:38:27+00:00,3.0799310207367,3,versionB_stim.csv,ReadVersion.csv,Read,Read2,MULE,DONKEY,Study1,F,79,66,Test,User,-,,Recall,Recall2,2861,DONKEY,100,1530,2328,1,1,,1
w988425_TLM,vaiok4l18q,"Mediated JOLs",1,203,2024-04-25T16:38:31+00:00,3.4156911373138,3,versionB_stim.csv,ReadVersion.csv,Read,Read2,BAT,BOUNCE,Study1,M,67,106,Test,User,-,,Recall,Recall2,3211,BOUNCE,100,1996,2977,1,1,,1
w988425_TLM,vaiok4l18q,"Mediated JOLs",1,204,2024-04-25T16:38:34+00:00,3.1979060173035,3,versionB_stim.csv,ReadVersion.csv,Read,Read2,MULE,DONKEY,Study1,F,85,62,Test,User,-,,Recall,Recall2,3036,DONKEY,100,1666,2573,1,1,,1
w988425_TLM,vaiok4l18q,"Mediated JOLs",1,205,2024-04-25T16:38:47+00:00,13.392418861389,3,versionB_stim.csv,ReadVersion.csv,Read,Read2,SOON,BELT,Study1,U,101,83,Test,User,-,,Recall,Recall2,13255,DONE,25,12444,12909,0,0,,1
w988425_TLM,vaiok4l18q,"Mediated JOLs",1,206,2024-04-25T16:38:50+00:00,3.0717170238495,3,versionB_stim.csv,ReadVersion.csv,Read,Read2,ROUGH,SILK,Study1,M,65,105,Test,User,-,,Recall,Recall2,2921,SILK,100,1789,2510,1,1,,1
w988425_TLM,vaiok4l18q,"Mediated JOLs",1,207,2024-04-25T16:38:54+00:00,4.025249004364,3,versionB_stim.csv,ReadVersion.csv,Read,Read2,CIRCLE,DANCE,Study1,M,68,98,Test,User,-,,Recall,Recall2,3840,AROUND,36.363636363636,2451,3379,0,0,,1
w988425_TLM,vaiok4l18q,"Mediated JOLs",1,208,2024-04-25T16:38:57+00:00,2.731831073761,3,versionB_stim.csv,ReadVersion.csv,Read,Read2,SIP,DRINK,Study1,F,87,79,Test,User,-,,Recall,Recall2,2386,DRINK,100,1356,1934,1,1,,1
w988425_TLM,vaiok4l18q,"Mediated JOLs",1,209,2024-04-25T16:39:01+00:00,3.3787999153137,3,versionB_stim.csv,ReadVersion.csv,Read,Read2,WAR,QUIET,Study1,M,63,86,Test,User,-,,Recall,Recall2,3202,QUIET,100,1784,2448,1,1,,1
w988425_TLM,vaiok4l18q,"Mediated JOLs",1,210,2024-04-25T16:39:05+00:00,4.3616321086884,3,versionB_stim.csv,ReadVersion.csv,Read,Read2,TREE,SYRUP,Study1,M,66,103,Test,User,-,,Recall,Recall2,4197,OUTSIDE,16.666666666667,2895,3813,0,0,,1
