Username,ID,ExperimentName,Session,Trial,Date,TimeDif,"Condition Number","Stimuli File","Order File","Condition Description","Condition Notes",Stimuli*Cue,Stimuli*Answer,Stimuli*Shuffle,"Stimuli*Stimuli Notes",Stimuli*Value,Procedure*Item,"Procedure*Trial Type","Procedure*Max Time","Procedure*Min Time",Procedure*Text,"Procedure*Procedure Notes",Procedure*Shuffle,Response*RT,Response*Response,Response*Accuracy,Response*RTfirst,Response*RTlast,Response*strictAcc,Response*lenientAcc,Response*focus,Response*Focus
w10166559CB,kja36ard2m,"Mediated JOLs",1,1,2024-10-09T19:42:05+00:00,5.7756369113922,1,versionA_stim.csv,ReadVersion.csv,Read,Read1,,,,,,0,Instruct,-,5,"In this section, you will be presented with a series of word pairs. Please study each word pair! Your memory will be tested!",Initial_Instruct,Instruct1,5710,,,-1,-1,,,,1
w10166559CB,kja36ard2m,"Mediated JOLs",1,2,2024-10-09T19:42:06+00:00,1.3959109783173,1,versionA_stim.csv,ReadVersion.csv,Read,Read1,,,,,,0,Instruct,User,-,"You will now begin. Press Enter when you are ready to begin.",,Instruct16,1278,,,-1,-1,,,,1
w10166559CB,kja36ard2m,"Mediated JOLs",1,3,2024-10-09T19:42:11+00:00,4.8984811306,1,versionA_stim.csv,ReadVersion.csv,Read,Read1,TREES,GREEN,BUFFER1,Buffer,1,6,Study,User,-,,Study/JOL,BUFFER,4769,,,-1,-1,,,,1
w10166559CB,kja36ard2m,"Mediated JOLs",1,4,2024-10-09T19:42:13+00:00,1.4324009418488,1,versionA_stim.csv,ReadVersion.csv,Read,Read1,SPACE,JAM,BUFFER1,Buffer,5,2,Study,User,-,,Study/JOL,BUFFER,1305,,,-1,-1,,,,1
w10166559CB,kja36ard2m,"Mediated JOLs",1,5,2024-10-09T19:42:14+00:00,1.402496099472,1,versionA_stim.csv,ReadVersion.csv,Read,Read1,SCARE,FRIGHT,BUFFER1,Buffer,4,4,Study,User,-,,Study/JOL,BUFFER,1284,,,-1,-1,,,,1
w10166559CB,kja36ard2m,"Mediated JOLs",1,6,2024-10-09T19:42:16+00:00,1.6575839519501,1,versionA_stim.csv,ReadVersion.csv,Read,Read1,PITCHER,CATCHER,BUFFER1,Buffer,2,5,Study,User,-,,Study/JOL,BUFFER,1544,,,-1,-1,,,,1
w10166559CB,kja36ard2m,"Mediated JOLs",1,7,2024-10-09T19:42:17+00:00,1.2317900657654,1,versionA_stim.csv,ReadVersion.csv,Read,Read1,PEANUT,BUTTER,BUFFER1,Buffer,3,3,Study,User,-,,Study/JOL,BUFFER,1098,,,-1,-1,,,,1
w10166559CB,kja36ard2m,"Mediated JOLs",1,8,2024-10-09T19:42:18+00:00,1.2610869407654,1,versionA_stim.csv,ReadVersion.csv,Read,Read1,TEMPERATURE,MORNING,Study1,U,48,12,Study,User,-,,Study/JOL,"Study Phase",1143,,,-1,-1,,,,1
w10166559CB,kja36ard2m,"Mediated JOLs",1,9,2024-10-09T19:42:20+00:00,1.6893720626831,1,versionA_stim.csv,ReadVersion.csv,Read,Read1,BIRTHDAY,APPLE,Study1,M,9,47,Study,User,-,,Study/JOL,"Study Phase",1571,,,-1,-1,,,,1
w10166559CB,kja36ard2m,"Mediated JOLs",1,10,2024-10-09T19:42:21+00:00,1.4753909111023,1,versionA_stim.csv,ReadVersion.csv,Read,Read1,HORSE,TIRE,Study1,M,14,39,Study,User,-,,Study/JOL,"Study Phase",1354,,,-1,-1,,,,1
w10166559CB,kja36ard2m,"Mediated JOLs",1,11,2024-10-09T19:42:23+00:00,1.0283579826355,1,versionA_stim.csv,ReadVersion.csv,Read,Read1,CRY,BEER,Study1,M,16,46,Study,User,-,,Study/JOL,"Study Phase",885,,,-1,-1,,,,1
w10166559CB,kja36ard2m,"Mediated JOLs",1,12,2024-10-09T19:42:24+00:00,1.1674370765686,1,versionA_stim.csv,ReadVersion.csv,Read,Read1,MULE,DONKEY,Study1,F,30,15,Study,User,-,,Study/JOL,"Study Phase",1029,,,-1,-1,,,,1
w10166559CB,kja36ard2m,"Mediated JOLs",1,13,2024-10-09T19:42:25+00:00,1.3321750164032,1,versionA_stim.csv,ReadVersion.csv,Read,Read1,ORCHID,FLOWER,Study1,F,34,8,Study,User,-,,Study/JOL,"Study Phase",1215,,,-1,-1,,,,1
w10166559CB,kja36ard2m,"Mediated JOLs",1,14,2024-10-09T19:42:26+00:00,1.2723639011383,1,versionA_stim.csv,ReadVersion.csv,Read,Read1,HYGIENE,CLEAN,Study1,F,28,40,Study,User,-,,Study/JOL,"Study Phase",1149,,,-1,-1,,,,1
w10166559CB,kja36ard2m,"Mediated JOLs",1,15,2024-10-09T19:42:28+00:00,1.4360990524292,1,versionA_stim.csv,ReadVersion.csv,Read,Read1,SHELL,SHAKE,Study1,U,43,16,Study,User,-,,Study/JOL,"Study Phase",1322,,,-1,-1,,,,1
w10166559CB,kja36ard2m,"Mediated JOLs",1,16,2024-10-09T19:42:29+00:00,1.275573015213,1,versionA_stim.csv,ReadVersion.csv,Read,Read1,STRETCH,CLOTH,Study1,U,37,23,Study,User,-,,Study/JOL,"Study Phase",1153,,,-1,-1,,,,1
w10166559CB,kja36ard2m,"Mediated JOLs",1,17,2024-10-09T19:42:30+00:00,1.5028848648071,1,versionA_stim.csv,ReadVersion.csv,Read,Read1,ROUGH,WORM,Study1,M,10,42,Study,User,-,,Study/JOL,"Study Phase",1386,,,-1,-1,,,,1
w10166559CB,kja36ard2m,"Mediated JOLs",1,18,2024-10-09T19:42:32+00:00,1.146744966507,1,versionA_stim.csv,ReadVersion.csv,Read,Read1,CAKE,HAND,Study1,U,49,50,Study,User,-,,Study/JOL,"Study Phase",1023,,,-1,-1,,,,1
w10166559CB,kja36ard2m,"Mediated JOLs",1,19,2024-10-09T19:42:33+00:00,1.2671241760254,1,versionA_stim.csv,ReadVersion.csv,Read,Read1,BAT,JUMP,Study1,M,12,41,Study,User,-,,Study/JOL,"Study Phase",1142,,,-1,-1,,,,1
w10166559CB,kja36ard2m,"Mediated JOLs",1,20,2024-10-09T19:42:34+00:00,1.2316749095917,1,versionA_stim.csv,ReadVersion.csv,Read,Read1,CIRCLE,FUN,Study1,M,13,29,Study,User,-,,Study/JOL,"Study Phase",1117,,,-1,-1,,,,1
w10166559CB,kja36ard2m,"Mediated JOLs",1,21,2024-10-09T19:42:36+00:00,1.4473249912262,1,versionA_stim.csv,ReadVersion.csv,Read,Read1,CREDIT,CARD,Study1,F,33,27,Study,User,-,,Study/JOL,"Study Phase",1334,,,-1,-1,,,,1
w10166559CB,kja36ard2m,"Mediated JOLs",1,22,2024-10-09T19:42:36+00:00,0.28859305381775,1,versionA_stim.csv,ReadVersion.csv,Read,Read1,VEHICLE,CHARM,Study1,U,40,22,Study,User,-,,Study/JOL,"Study Phase",175,,,21,21,,,,1
w10166559CB,kja36ard2m,"Mediated JOLs",1,23,2024-10-09T19:42:38+00:00,2.3942270278931,1,versionA_stim.csv,ReadVersion.csv,Read,Read1,ROOT,PLANT,Study1,F,25,31,Study,User,-,,Study/JOL,"Study Phase",2282,,,-1,-1,,,,1
w10166559CB,kja36ard2m,"Mediated JOLs",1,24,2024-10-09T19:42:40+00:00,1.4135320186615,1,versionA_stim.csv,ReadVersion.csv,Read,Read1,FUZZY,BANG,Study1,U,50,33,Study,User,-,,Study/JOL,"Study Phase",1284,,,-1,-1,,,,1
w10166559CB,kja36ard2m,"Mediated JOLs",1,25,2024-10-09T19:42:41+00:00,1.0928549766541,1,versionA_stim.csv,ReadVersion.csv,Read,Read1,MEAT,KEYS,Study1,U,41,49,Study,User,-,,Study/JOL,"Study Phase",968,,,-1,-1,,,,1
w10166559CB,kja36ard2m,"Mediated JOLs",1,26,2024-10-09T19:42:42+00:00,1.1976869106293,1,versionA_stim.csv,ReadVersion.csv,Read,Read1,WORD,SENTENCE,Study1,F,27,38,Study,User,-,,Study/JOL,"Study Phase",1077,,,-1,-1,,,,1
w10166559CB,kja36ard2m,"Mediated JOLs",1,27,2024-10-09T19:42:43+00:00,1.0762031078339,1,versionA_stim.csv,ReadVersion.csv,Read,Read1,CRACKLE,ELECTION,Study1,U,39,35,Study,User,-,,Study/JOL,"Study Phase",958,,,-1,-1,,,,1
w10166559CB,kja36ard2m,"Mediated JOLs",1,28,2024-10-09T19:42:45+00:00,1.7367479801178,1,versionA_stim.csv,ReadVersion.csv,Read,Read1,TREE,PANCAKES,Study1,M,11,48,Study,User,-,,Study/JOL,"Study Phase",1617,,,-1,-1,,,,1
w10166559CB,kja36ard2m,"Mediated JOLs",1,29,2024-10-09T19:42:46+00:00,1.0846869945526,1,versionA_stim.csv,ReadVersion.csv,Read,Read1,GIVE,STEAK,Study1,U,38,37,Study,User,-,,Study/JOL,"Study Phase",962,,,-1,-1,,,,1
w10166559CB,kja36ard2m,"Mediated JOLs",1,30,2024-10-09T19:42:47+00:00,0.96356606483459,1,versionA_stim.csv,ReadVersion.csv,Read,Read1,HARD,BALL,Study1,M,20,7,Study,User,-,,Study/JOL,"Study Phase",839,,,-1,-1,,,,1
w10166559CB,kja36ard2m,"Mediated JOLs",1,31,2024-10-09T19:42:48+00:00,0.81872487068176,1,versionA_stim.csv,ReadVersion.csv,Read,Read1,LITTER,TRASH,Study1,F,21,30,Study,User,-,,Study/JOL,"Study Phase",701,,,-1,-1,,,,1
w10166559CB,kja36ard2m,"Mediated JOLs",1,32,2024-10-09T19:42:50+00:00,1.8581700325012,1,versionA_stim.csv,ReadVersion.csv,Read,Read1,SWAN,BIRD,Study1,F,26,44,Study,User,-,,Study/JOL,"Study Phase",1728,,,-1,-1,,,,1
w10166559CB,kja36ard2m,"Mediated JOLs",1,33,2024-10-09T19:42:50+00:00,0.6646900177002,1,versionA_stim.csv,ReadVersion.csv,Read,Read1,MAZE,PHONE,Study1,U,42,43,Study,User,-,,Study/JOL,"Study Phase",555,,,-1,-1,,,,1
w10166559CB,kja36ard2m,"Mediated JOLs",1,34,2024-10-09T19:42:51+00:00,0.67234706878662,1,versionA_stim.csv,ReadVersion.csv,Read,Read1,TUNA,FISH,Study1,F,35,36,Study,User,-,,Study/JOL,"Study Phase",544,,,-1,-1,,,,1
w10166559CB,kja36ard2m,"Mediated JOLs",1,35,2024-10-09T19:42:51+00:00,0.61190986633301,1,versionA_stim.csv,ReadVersion.csv,Read,Read1,CEILING,RUG,Study1,M,15,32,Study,User,-,,Study/JOL,"Study Phase",497,,,-1,-1,,,,1
w10166559CB,kja36ard2m,"Mediated JOLs",1,36,2024-10-09T19:42:52+00:00,0.54334998130798,1,versionA_stim.csv,ReadVersion.csv,Read,Read1,MIRROR,MAROON,Study1,U,36,17,Study,User,-,,Study/JOL,"Study Phase",415,,,-1,-1,,,,1
w10166559CB,kja36ard2m,"Mediated JOLs",1,37,2024-10-09T19:42:52+00:00,0.43235802650452,1,versionA_stim.csv,ReadVersion.csv,Read,Read1,AFFECTION,LOVE,Study1,F,31,18,Study,User,-,,Study/JOL,"Study Phase",317,,,-1,-1,,,,1
w10166559CB,kja36ard2m,"Mediated JOLs",1,38,2024-10-09T19:42:53+00:00,0.49559211730957,1,versionA_stim.csv,ReadVersion.csv,Read,Read1,TOOTH,COMB,Study1,M,19,14,Study,User,-,,Study/JOL,"Study Phase",373,,,-1,-1,,,,1
w10166559CB,kja36ard2m,"Mediated JOLs",1,39,2024-10-09T19:42:53+00:00,0.50586986541748,1,versionA_stim.csv,ReadVersion.csv,Read,Read1,LION,FLAG,Study1,M,6,28,Study,User,-,,Study/JOL,"Study Phase",382,,,-1,-1,,,,1
w10166559CB,kja36ard2m,"Mediated JOLs",1,40,2024-10-09T19:42:54+00:00,0.45620703697205,1,versionA_stim.csv,ReadVersion.csv,Read,Read1,WEDDING,HAND,Study1,M,17,24,Study,User,-,,Study/JOL,"Study Phase",330,,,-1,-1,,,,1
w10166559CB,kja36ard2m,"Mediated JOLs",1,41,2024-10-09T19:42:54+00:00,0.50664305686951,1,versionA_stim.csv,ReadVersion.csv,Read,Read1,SIP,DRINK,Study1,F,32,26,Study,User,-,,Study/JOL,"Study Phase",387,,,-1,-1,,,,1
w10166559CB,kja36ard2m,"Mediated JOLs",1,42,2024-10-09T19:42:55+00:00,0.49144387245178,1,versionA_stim.csv,ReadVersion.csv,Read,Read1,NAP,SLEEP,Study1,F,29,51,Study,User,-,,Study/JOL,"Study Phase",374,,,-1,-1,,,,1
w10166559CB,kja36ard2m,"Mediated JOLs",1,43,2024-10-09T19:42:55+00:00,0.47208118438721,1,versionA_stim.csv,ReadVersion.csv,Read,Read1,WAR,LOUD,Study1,M,8,25,Study,User,-,,Study/JOL,"Study Phase",351,,,-1,-1,,,,1
w10166559CB,kja36ard2m,"Mediated JOLs",1,44,2024-10-09T19:42:56+00:00,0.47882580757141,1,versionA_stim.csv,ReadVersion.csv,Read,Read1,WAGE,MONEY,Study1,F,22,9,Study,User,-,,Study/JOL,"Study Phase",362,,,-1,-1,,,,1
w10166559CB,kja36ard2m,"Mediated JOLs",1,45,2024-10-09T19:42:56+00:00,0.55051803588867,1,versionA_stim.csv,ReadVersion.csv,Read,Read1,BEACH,SQUARE,Study1,M,7,45,Study,User,-,,Study/JOL,"Study Phase",429,,,-1,-1,,,,1
w10166559CB,kja36ard2m,"Mediated JOLs",1,46,2024-10-09T19:42:57+00:00,0.48246502876282,1,versionA_stim.csv,ReadVersion.csv,Read,Read1,SCALP,HEAD,Study1,F,23,11,Study,User,-,,Study/JOL,"Study Phase",367,,,-1,-1,,,,1
w10166559CB,kja36ard2m,"Mediated JOLs",1,47,2024-10-09T19:42:57+00:00,0.48119306564331,1,versionA_stim.csv,ReadVersion.csv,Read,Read1,SIGN,TICK,Study1,U,47,10,Study,User,-,,Study/JOL,"Study Phase",359,,,-1,-1,,,,1
w10166559CB,kja36ard2m,"Mediated JOLs",1,48,2024-10-09T19:42:58+00:00,0.51254487037659,1,versionA_stim.csv,ReadVersion.csv,Read,Read1,MULE,DONKEY,Study1,F,24,13,Study,User,-,,Study/JOL,"Study Phase",391,,,-1,-1,,,,1
w10166559CB,kja36ard2m,"Mediated JOLs",1,49,2024-10-09T19:42:58+00:00,0.54868912696838,1,versionA_stim.csv,ReadVersion.csv,Read,Read1,KEYS,ROD,Study1,U,45,21,Study,User,-,,Study/JOL,"Study Phase",432,,,-1,-1,,,,1
w10166559CB,kja36ard2m,"Mediated JOLs",1,50,2024-10-09T19:42:59+00:00,0.53813600540161,1,versionA_stim.csv,ReadVersion.csv,Read,Read1,DAY,BLACK,Study1,M,18,20,Study,User,-,,Study/JOL,"Study Phase",428,,,-1,-1,,,,1
w10166559CB,kja36ard2m,"Mediated JOLs",1,51,2024-10-09T19:42:59+00:00,0.53984904289246,1,versionA_stim.csv,ReadVersion.csv,Read,Read1,SOON,BELT,Study1,U,46,34,Study,User,-,,Study/JOL,"Study Phase",417,,,-1,-1,,,,1
w10166559CB,kja36ard2m,"Mediated JOLs",1,52,2024-10-09T19:43:00+00:00,0.55444598197937,1,versionA_stim.csv,ReadVersion.csv,Read,Read1,LISTEN,FICTION,Study1,U,44,19,Study,User,-,,Study/JOL,"Study Phase",431,,,-1,-1,,,,1
w10166559CB,kja36ard2m,"Mediated JOLs",1,53,2024-10-09T19:43:01+00:00,0.49422788619995,1,versionA_stim.csv,ReadVersion.csv,Read,Read1,MALT,CHOCOLATE,BUFFER2,Buffer,53,54,Study,User,-,,Study/JOL,BUFFER2,369,,,-1,-1,,,,1
w10166559CB,kja36ard2m,"Mediated JOLs",1,54,2024-10-09T19:43:01+00:00,0.5292661190033,1,versionA_stim.csv,ReadVersion.csv,Read,Read1,SHRIMP,FISH,BUFFER4,Buffer,108,110,Study,User,-,,Study/JOL,BUFFER2,405,,,-1,-1,,,,1
w10166559CB,kja36ard2m,"Mediated JOLs",1,55,2024-10-09T19:43:02+00:00,0.49854493141174,1,versionA_stim.csv,ReadVersion.csv,Read,Read1,DAYS,WEEKS,BUFFER3,Buffer,56,58,Study,User,-,,Study/JOL,BUFFER2,378,,,-1,-1,,,,1
w10166559CB,kja36ard2m,"Mediated JOLs",1,56,2024-10-09T19:43:02+00:00,0.54326891899109,1,versionA_stim.csv,ReadVersion.csv,Read,Read1,CARROT,POTATO,BUFFER4,Buffer,106,107,Study,User,-,,Study/JOL,BUFFER2,402,,,-1,-1,,,,1
w10166559CB,kja36ard2m,"Mediated JOLs",1,57,2024-10-09T19:43:03+00:00,0.61583518981934,1,versionA_stim.csv,ReadVersion.csv,Read,Read1,MONTH,YEAR,BUFFER3,Buffer,57,61,Study,User,-,,Study/JOL,BUFFER2,498,,,-1,-1,,,,1
w10166559CB,kja36ard2m,"Mediated JOLs",1,58,2024-10-09T19:43:04+00:00,1.3877499103546,1,versionA_stim.csv,ReadVersion.csv,Read,Read1,,,,,,0,Instruct,User,-,"You have completed this section. Please press Enter.",Filler_Instruction,Instruct2,1264,,,-1,-1,,,,1
w10166559CB,kja36ard2m,"Mediated JOLs",1,59,2024-10-09T19:45:04+00:00,120.26021409035,1,versionA_stim.csv,ReadVersion.csv,Read,Read1,,,,,,0,FreeRecall,120,120,"Please list the 50 US states in alphabetical order. The task will automatically advance to the next screen after two minutes.",,Filler1,120001,"Alabama (AL) Alaska (AK) Arizona (AZ) Arkansas (AR) California (CA) Colorado (CO) Connecticut (CT) Delaware (DE) Florida (FL) Georgia (GA) Hawaii (HI) Idaho (ID) Illinois (IL) Indiana (IN) Iowa (IA) Kansas (KS) Kentucky (KY) Louisiana (LA) Maine (ME) Maryland (MD) Massachusetts (MA) Michigan (MI) Minnesota (MN) Mississippi (MS) Missouri (MO) Montana (MT) Nebraska (NE) Nevada (NV) New Hampshire (NH) New Jersey (NJ) New Mexico (NM) New York (NY) North Carolina (NC) North Dakota (ND) Ohio (OH) Oklahoma (OK) Oregon (OR) Pennsylvania (PA) Rhode Island (RI) South Carolina (SC) South Dakota (SD) Tennessee (TN) Texas (TX) Utah (UT) Vermont (VT) Virginia (VA) Washington (WA) West Virginia (WV) Wisconsin (WI) Wyoming (WY)",0,-1,-1,0,0,,0.936
w10166559CB,kja36ard2m,"Mediated JOLs",1,60,2024-10-09T19:45:22+00:00,17.692212820053,1,versionA_stim.csv,ReadVersion.csv,Read,Read1,,,,,,0,Instruct,-,10,"You will now be presented with the first word from each of the previously studied item pairs. Please type the missing word. If you do not know the word, you may guess or press Enter to skip forward to the next pair.",,Instruct3,17538,,,-1,-1,,,,1
w10166559CB,kja36ard2m,"Mediated JOLs",1,61,2024-10-09T19:45:27+00:00,5.3897869586945,1,versionA_stim.csv,ReadVersion.csv,Read,Read1,ROOT,PLANT,Study1,F,25,31,Test,User,-,,Recall,Recall1,5261,Tree,22.222222222222,1880,4618,0,0,,1
w10166559CB,kja36ard2m,"Mediated JOLs",1,62,2024-10-09T19:45:31+00:00,3.0470731258392,1,versionA_stim.csv,ReadVersion.csv,Read,Read1,HARD,BALL,Study1,M,20,7,Test,User,-,,Recall,Recall1,2928,,0,-1,-1,0,0,,1
w10166559CB,kja36ard2m,"Mediated JOLs",1,63,2024-10-09T19:45:34+00:00,3.9667630195618,1,versionA_stim.csv,ReadVersion.csv,Read,Read1,LITTER,TRASH,Study1,F,21,30,Test,User,-,,Recall,Recall1,3844,Dogs,22.222222222222,2025,3140,0,0,,1
w10166559CB,kja36ard2m,"Mediated JOLs",1,64,2024-10-09T19:45:38+00:00,3.4995448589325,1,versionA_stim.csv,ReadVersion.csv,Read,Read1,TEMPERATURE,MORNING,Study1,U,48,12,Test,User,-,,Recall,Recall1,3378,Morning,100,1977,2817,1,1,,1
w10166559CB,kja36ard2m,"Mediated JOLs",1,65,2024-10-09T19:45:41+00:00,2.5620682239532,1,versionA_stim.csv,ReadVersion.csv,Read,Read1,TOOTH,COMB,Study1,M,19,14,Test,User,-,,Recall,Recall1,2444,Ache,25,1256,1744,0,0,,1
w10166559CB,kja36ard2m,"Mediated JOLs",1,66,2024-10-09T19:45:44+00:00,3.1544809341431,1,versionA_stim.csv,ReadVersion.csv,Read,Read1,LISTEN,FICTION,Study1,U,44,19,Test,User,-,,Recall,Recall1,3033,Heard,0,1792,2458,0,0,,1
w10166559CB,kja36ard2m,"Mediated JOLs",1,67,2024-10-09T19:45:46+00:00,2.5072958469391,1,versionA_stim.csv,ReadVersion.csv,Read,Read1,NAP,SLEEP,Study1,F,29,51,Test,User,-,,Recall,Recall1,2380,Bed,25,1477,1821,0,0,,1
w10166559CB,kja36ard2m,"Mediated JOLs",1,68,2024-10-09T19:45:51+00:00,4.3509430885315,1,versionA_stim.csv,ReadVersion.csv,Read,Read1,CAKE,HAND,Study1,U,49,50,Test,User,-,,Recall,Recall1,4231,Election,16.666666666667,1805,3056,0,0,,1
w10166559CB,kja36ard2m,"Mediated JOLs",1,69,2024-10-09T19:45:54+00:00,3.417809009552,1,versionA_stim.csv,ReadVersion.csv,Read,Read1,CRY,BEER,Study1,M,16,46,Test,User,-,,Recall,Recall1,3304,Sad,0,1848,2234,0,0,,1
w10166559CB,kja36ard2m,"Mediated JOLs",1,70,2024-10-09T19:45:59+00:00,5.3325860500336,1,versionA_stim.csv,ReadVersion.csv,Read,Read1,MIRROR,MAROON,Study1,U,36,17,Test,User,-,,Recall,Recall1,5207,Clear,36.363636363636,4124,5089,0,0,,1
w10166559CB,kja36ard2m,"Mediated JOLs",1,71,2024-10-09T19:46:02+00:00,2.4424738883972,1,versionA_stim.csv,ReadVersion.csv,Read,Read1,CIRCLE,FUN,Study1,M,13,29,Test,User,-,,Recall,Recall1,2321,K,0,1837,1837,0,0,,1
w10166559CB,kja36ard2m,"Mediated JOLs",1,72,2024-10-09T19:46:05+00:00,2.832417011261,1,versionA_stim.csv,ReadVersion.csv,Read,Read1,TUNA,FISH,Study1,F,35,36,Test,User,-,,Recall,Recall1,2719,Fish,100,1573,1966,1,1,,1
w10166559CB,kja36ard2m,"Mediated JOLs",1,73,2024-10-09T19:46:10+00:00,5.5456340312958,1,versionA_stim.csv,ReadVersion.csv,Read,Read1,KEYS,ROD,Study1,U,45,21,Test,User,-,,Recall,Recall1,5427,,0,1932,4113,0,0,,1
w10166559CB,kja36ard2m,"Mediated JOLs",1,74,2024-10-09T19:46:13+00:00,2.7249441146851,1,versionA_stim.csv,ReadVersion.csv,Read,Read1,BAT,JUMP,Study1,M,12,41,Test,User,-,,Recall,Recall1,2607,Fall,0,1935,2371,0,0,,1
w10166559CB,kja36ard2m,"Mediated JOLs",1,75,2024-10-09T19:46:16+00:00,3.158273935318,1,versionA_stim.csv,ReadVersion.csv,Read,Read1,MULE,DONKEY,Study1,F,24,13,Test,User,-,,Recall,Recall1,3010,Donkey,100,1091,2793,1,1,,1
w10166559CB,kja36ard2m,"Mediated JOLs",1,76,2024-10-09T19:46:24+00:00,7.6316890716553,1,versionA_stim.csv,ReadVersion.csv,Read,Read1,HORSE,TIRE,Study1,M,14,39,Test,User,-,,Recall,Recall1,7514,Carriage,33.333333333333,1423,6716,0,0,,1
w10166559CB,kja36ard2m,"Mediated JOLs",1,77,2024-10-09T19:46:26+00:00,2.8463180065155,1,versionA_stim.csv,ReadVersion.csv,Read,Read1,STRETCH,CLOTH,Study1,U,37,23,Test,User,-,,Recall,Recall1,2730,,0,-1,-1,0,0,,1
w10166559CB,kja36ard2m,"Mediated JOLs",1,78,2024-10-09T19:46:28+00:00,1.6825489997864,1,versionA_stim.csv,ReadVersion.csv,Read,Read1,DAY,BLACK,Study1,M,18,20,Test,User,-,,Recall,Recall1,1567,Night,0,971,1427,0,0,,1
w10166559CB,kja36ard2m,"Mediated JOLs",1,79,2024-10-09T19:46:31+00:00,2.5609469413757,1,versionA_stim.csv,ReadVersion.csv,Read,Read1,SCALP,HEAD,Study1,F,23,11,Test,User,-,,Recall,Recall1,2395,Hair,50,1806,2235,0,0,,1
w10166559CB,kja36ard2m,"Mediated JOLs",1,80,2024-10-09T19:46:33+00:00,2.2488639354706,1,versionA_stim.csv,ReadVersion.csv,Read,Read1,VEHICLE,CHARM,Study1,U,40,22,Test,User,-,,Recall,Recall1,2069,Drive,20,1345,1904,0,0,,1
w10166559CB,kja36ard2m,"Mediated JOLs",1,81,2024-10-09T19:46:35+00:00,2.1204659938812,1,versionA_stim.csv,ReadVersion.csv,Read,Read1,ROUGH,WORM,Study1,M,10,42,Test,User,-,,Recall,Recall1,2001,Tough,22.222222222222,1314,1778,0,0,,1
w10166559CB,kja36ard2m,"Mediated JOLs",1,82,2024-10-09T19:46:38+00:00,2.6581490039825,1,versionA_stim.csv,ReadVersion.csv,Read,Read1,SIGN,TICK,Study1,U,47,10,Test,User,-,,Recall,Recall1,2538,Steal,22.222222222222,1557,2234,0,0,,1
w10166559CB,kja36ard2m,"Mediated JOLs",1,83,2024-10-09T19:46:40+00:00,2.4003820419312,1,versionA_stim.csv,ReadVersion.csv,Read,Read1,SWAN,BIRD,Study1,F,26,44,Test,User,-,,Recall,Recall1,2246,Duck,25,1428,2027,0,0,,1
w10166559CB,kja36ard2m,"Mediated JOLs",1,84,2024-10-09T19:46:42+00:00,2.2486119270325,1,versionA_stim.csv,ReadVersion.csv,Read,Read1,TREE,PANCAKES,Study1,M,11,48,Test,User,-,,Recall,Recall1,2067,Roots,15.384615384615,1201,1783,0,0,,1
w10166559CB,kja36ard2m,"Mediated JOLs",1,85,2024-10-09T19:46:46+00:00,3.3941349983215,1,versionA_stim.csv,ReadVersion.csv,Read,Read1,SOON,BELT,Study1,U,46,34,Test,User,-,,Recall,Recall1,3270,Now,0,2566,3089,0,0,,1
w10166559CB,kja36ard2m,"Mediated JOLs",1,86,2024-10-09T19:46:49+00:00,2.909539937973,1,versionA_stim.csv,ReadVersion.csv,Read,Read1,WORD,SENTENCE,Study1,F,27,38,Test,User,-,,Recall,Recall1,2794,Bird,0,2035,2638,0,0,,1
w10166559CB,kja36ard2m,"Mediated JOLs",1,87,2024-10-09T19:46:51+00:00,2.5809810161591,1,versionA_stim.csv,ReadVersion.csv,Read,Read1,SHELL,SHAKE,Study1,U,43,16,Test,User,-,,Recall,Recall1,2464,Smell,40,1705,2235,0,0,,1
w10166559CB,kja36ard2m,"Mediated JOLs",1,88,2024-10-09T19:46:56+00:00,4.2303841114044,1,versionA_stim.csv,ReadVersion.csv,Read,Read1,BEACH,SQUARE,Study1,M,7,45,Test,User,-,,Recall,Recall1,4108,teach,18.181818181818,3317,3896,0,0,,1
w10166559CB,kja36ard2m,"Mediated JOLs",1,89,2024-10-09T19:46:58+00:00,2.6399130821228,1,versionA_stim.csv,ReadVersion.csv,Read,Read1,LION,FLAG,Study1,M,6,28,Test,User,-,,Recall,Recall1,2518,ram,28.571428571429,1185,2254,0,0,,1
w10166559CB,kja36ard2m,"Mediated JOLs",1,90,2024-10-09T19:47:07+00:00,8.4735939502716,1,versionA_stim.csv,ReadVersion.csv,Read,Read1,SIP,DRINK,Study1,F,32,26,Test,User,-,,Recall,Recall1,8351,"Ole miss",15.384615384615,6905,8071,0,0,,1
w10166559CB,kja36ard2m,"Mediated JOLs",1,91,2024-10-09T19:47:09+00:00,2.3119559288025,1,versionA_stim.csv,ReadVersion.csv,Read,Read1,HYGIENE,CLEAN,Study1,F,28,40,Test,User,-,,Recall,Recall1,2177,clean,100,1373,1919,1,1,,1
w10166559CB,kja36ard2m,"Mediated JOLs",1,92,2024-10-09T19:47:11+00:00,2.0556299686432,1,versionA_stim.csv,ReadVersion.csv,Read,Read1,WAR,LOUD,Study1,M,8,25,Test,User,-,,Recall,Recall1,1932,fight,0,1349,1790,0,0,,1
w10166559CB,kja36ard2m,"Mediated JOLs",1,93,2024-10-09T19:47:13+00:00,2.2015700340271,1,versionA_stim.csv,ReadVersion.csv,Read,Read1,MULE,DONKEY,Study1,F,30,15,Test,User,-,,Recall,Recall1,2079,donkey,100,973,1781,1,1,,1
w10166559CB,kja36ard2m,"Mediated JOLs",1,94,2024-10-09T19:47:16+00:00,2.8008880615234,1,versionA_stim.csv,ReadVersion.csv,Read,Read1,AFFECTION,LOVE,Study1,F,31,18,Test,User,-,,Recall,Recall1,2675,attention,15.384615384615,1271,2462,0,0,,1
w10166559CB,kja36ard2m,"Mediated JOLs",1,95,2024-10-09T19:47:18+00:00,1.8293960094452,1,versionA_stim.csv,ReadVersion.csv,Read,Read1,WAGE,MONEY,Study1,F,22,9,Test,User,-,,Recall,Recall1,1709,money,100,999,1605,1,1,,1
w10166559CB,kja36ard2m,"Mediated JOLs",1,96,2024-10-09T19:47:21+00:00,3.5185868740082,1,versionA_stim.csv,ReadVersion.csv,Read,Read1,MAZE,PHONE,Study1,U,42,43,Test,User,-,,Recall,Recall1,3401,,0,2509,2510,0,0,,1
w10166559CB,kja36ard2m,"Mediated JOLs",1,97,2024-10-09T19:47:23+00:00,1.8348391056061,1,versionA_stim.csv,ReadVersion.csv,Read,Read1,BIRTHDAY,APPLE,Study1,M,9,47,Test,User,-,,Recall,Recall1,1719,happy,60,1122,1616,0,0,,1
w10166559CB,kja36ard2m,"Mediated JOLs",1,98,2024-10-09T19:47:25+00:00,1.7989029884338,1,versionA_stim.csv,ReadVersion.csv,Read,Read1,CEILING,RUG,Study1,M,15,32,Test,User,-,,Recall,Recall1,1660,roof,28.571428571429,1232,1569,0,0,,1
w10166559CB,kja36ard2m,"Mediated JOLs",1,99,2024-10-09T19:47:27+00:00,2.2534630298615,1,versionA_stim.csv,ReadVersion.csv,Read,Read1,ORCHID,FLOWER,Study1,F,34,8,Test,User,-,,Recall,Recall1,2134,dove,40,1716,2035,0,0,,1
w10166559CB,kja36ard2m,"Mediated JOLs",1,100,2024-10-09T19:47:30+00:00,2.6306760311127,1,versionA_stim.csv,ReadVersion.csv,Read,Read1,GIVE,STEAK,Study1,U,38,37,Test,User,-,,Recall,Recall1,2513,receive,16.666666666667,1425,2365,0,0,,1
w10166559CB,kja36ard2m,"Mediated JOLs",1,101,2024-10-09T19:47:35+00:00,4.7547860145569,1,versionA_stim.csv,ReadVersion.csv,Read,Read1,MEAT,KEYS,Study1,U,41,49,Test,User,-,,Recall,Recall1,4458,eat,28.571428571429,1206,3550,0,0,,1
w10166559CB,kja36ard2m,"Mediated JOLs",1,102,2024-10-09T19:47:37+00:00,2.276636838913,1,versionA_stim.csv,ReadVersion.csv,Read,Read1,WEDDING,HAND,Study1,M,17,24,Test,User,-,,Recall,Recall1,2151,cake,25,978,1654,0,0,,1
w10166559CB,kja36ard2m,"Mediated JOLs",1,103,2024-10-09T19:47:39+00:00,2.4736671447754,1,versionA_stim.csv,ReadVersion.csv,Read,Read1,CRACKLE,ELECTION,Study1,U,39,35,Test,User,-,,Recall,Recall1,2342,snap,16.666666666667,1746,2065,0,0,,1
w10166559CB,kja36ard2m,"Mediated JOLs",1,104,2024-10-09T19:47:40+00:00,0.65327501296997,1,versionA_stim.csv,ReadVersion.csv,Read,Read1,CREDIT,CARD,Study1,F,33,27,Test,User,-,,Recall,Recall1,538,,0,-1,-1,0,0,,1
w10166559CB,kja36ard2m,"Mediated JOLs",1,105,2024-10-09T19:47:40+00:00,0.36400198936462,1,versionA_stim.csv,ReadVersion.csv,Read,Read1,FUZZY,BANG,Study1,U,50,33,Test,User,-,,Recall,Recall1,154,,0,-1,-1,0,0,,1
w10166559CB,kja36ard2m,"Mediated JOLs",1,106,2024-10-09T19:47:53+00:00,12.897725820541,1,versionA_stim.csv,ReadVersion.csv,Read,Read1,,,,,,0,Instruct,-,10,"You will now be presented with a new set of word pairs. Please study each pair. Remember that your memory will be tested! When finished, press Enter to move to the next pair.",Initial_Instruct,Instruct4,12762,,,-1,-1,,,,1
w10166559CB,kja36ard2m,"Mediated JOLs",1,107,2024-10-09T19:47:55+00:00,2.1164050102234,1,versionA_stim.csv,ReadVersion.csv,Read,Read1,,,,,,0,Instruct,User,-,"Press Enter when you are readty to begin",,Instruct11,1989,,,-1,-1,,,,1
w10166559CB,kja36ard2m,"Mediated JOLs",1,108,2024-10-09T19:47:57+00:00,1.5460991859436,1,versionA_stim.csv,ReadVersion.csv,Read,Read1,SPRING,MARCH,BUFFER3,Buffer,59,60,Study,User,-,,Study/JOL,BUFFER2,1407,,,-1,-1,,,,1
w10166559CB,kja36ard2m,"Mediated JOLs",1,109,2024-10-09T19:47:58+00:00,0.80780982971191,1,versionA_stim.csv,ReadVersion.csv,Read,Read1,TOOL,SHED,BUFFER3,Buffer,58,57,Study,User,-,,Study/JOL,BUFFER2,689,,,-1,-1,,,,1
w10166559CB,kja36ard2m,"Mediated JOLs",1,110,2024-10-09T19:47:58+00:00,0.24277400970459,1,versionA_stim.csv,ReadVersion.csv,Read,Read1,MOON,SPACE,BUFFER2,Buffer,54,52,Study,User,-,,Study/JOL,BUFFER2,128,,,-1,-1,,,,1
w10166559CB,kja36ard2m,"Mediated JOLs",1,111,2024-10-09T19:47:58+00:00,0.41093897819519,1,versionA_stim.csv,ReadVersion.csv,Read,Read1,NOODLE,STRING,BUFFER4,Buffer,107,109,Study,User,-,,Study/JOL,BUFFER2,288,,,-1,-1,,,,1
w10166559CB,kja36ard2m,"Mediated JOLs",1,112,2024-10-09T19:47:59+00:00,0.26247715950012,1,versionA_stim.csv,ReadVersion.csv,Read,Read1,OCTOBER,SPOOKY,BUFFER3,Buffer,60,59,Study,User,-,,Study/JOL,BUFFER2,153,,,-1,-1,,,,1
w10166559CB,kja36ard2m,"Mediated JOLs",1,113,2024-10-09T19:47:59+00:00,0.33460593223572,1,versionA_stim.csv,ReadVersion.csv,Read,Read1,STRONG,ACCIDENT,Study2,U,94,104,Study,User,-,,Study/JOL,"Study Phase2",172,,,-1,-1,,,,1
w10166559CB,kja36ard2m,"Mediated JOLs",1,114,2024-10-09T19:48:00+00:00,0.50174498558044,1,versionA_stim.csv,ReadVersion.csv,Read,Read1,CHISEL,HAMMER,Study2,F,78,90,Study,User,-,,Study/JOL,"Study Phase2",327,,,-1,-1,,,,1
w10166559CB,kja36ard2m,"Mediated JOLs",1,115,2024-10-09T19:48:00+00:00,0.28868889808655,1,versionA_stim.csv,ReadVersion.csv,Read,Read1,CHOP,CUT,Study2,F,77,87,Study,User,-,,Study/JOL,"Study Phase2",150,,,-1,-1,,,,1
w10166559CB,kja36ard2m,"Mediated JOLs",1,116,2024-10-09T19:48:00+00:00,0.27779603004456,1,versionA_stim.csv,ReadVersion.csv,Read,Read1,CASH,STUDY,Study2,U,105,95,Study,User,-,,Study/JOL,"Study Phase2",168,,,-1,-1,,,,1
w10166559CB,kja36ard2m,"Mediated JOLs",1,117,2024-10-09T19:48:00+00:00,0.30283999443054,1,versionA_stim.csv,ReadVersion.csv,Read,Read1,ARTERY,BRONZE,Study2,U,103,80,Study,User,-,,Study/JOL,"Study Phase2",189,,,-1,-1,,,,1
w10166559CB,kja36ard2m,"Mediated JOLs",1,118,2024-10-09T19:48:01+00:00,0.28928709030151,1,versionA_stim.csv,ReadVersion.csv,Read,Read1,ATTIRE,CLOTHES,Study2,F,79,66,Study,User,-,,Study/JOL,"Study Phase2",174,,,-1,-1,,,,1
w10166559CB,kja36ard2m,"Mediated JOLs",1,119,2024-10-09T19:48:01+00:00,0.28943705558777,1,versionA_stim.csv,ReadVersion.csv,Read,Read1,HEAVY,BIRD,Study2,M,68,96,Study,User,-,,Study/JOL,"Study Phase2",172,,,-1,-1,,,,1
w10166559CB,kja36ard2m,"Mediated JOLs",1,120,2024-10-09T19:48:01+00:00,0.29887104034424,1,versionA_stim.csv,ReadVersion.csv,Read,Read1,KING,VASE,Study2,U,91,105,Study,User,-,,Study/JOL,"Study Phase2",179,,,-1,-1,,,,1
w10166559CB,kja36ard2m,"Mediated JOLs",1,121,2024-10-09T19:48:02+00:00,0.29224300384521,1,versionA_stim.csv,ReadVersion.csv,Read,Read1,HERD,COW,Study2,F,88,72,Study,User,-,,Study/JOL,"Study Phase2",183,,,-1,-1,,,,1
w10166559CB,kja36ard2m,"Mediated JOLs",1,122,2024-10-09T19:48:02+00:00,0.29945087432861,1,versionA_stim.csv,ReadVersion.csv,Read,Read1,LEASE,TOIL,Study2,U,101,93,Study,User,-,,Study/JOL,"Study Phase2",184,,,-1,-1,,,,1
w10166559CB,kja36ard2m,"Mediated JOLs",1,123,2024-10-09T19:48:02+00:00,0.32840394973755,1,versionA_stim.csv,ReadVersion.csv,Read,Read1,DOCUMENT,PAPER,Study2,F,82,78,Study,User,-,,Study/JOL,"Study Phase2",207,,,-1,-1,,,,1
w10166559CB,kja36ard2m,"Mediated JOLs",1,124,2024-10-09T19:48:03+00:00,0.32815217971802,1,versionA_stim.csv,ReadVersion.csv,Read,Read1,SOAP,THIRST,Study2,M,67,74,Study,User,-,,Study/JOL,"Study Phase2",211,,,-1,-1,,,,1
w10166559CB,kja36ard2m,"Mediated JOLs",1,125,2024-10-09T19:48:03+00:00,0.27965879440308,1,versionA_stim.csv,ReadVersion.csv,Read,Read1,ART,WOLF,Study2,U,93,63,Study,User,-,,Study/JOL,"Study Phase2",169,,,-1,-1,,,,1
w10166559CB,kja36ard2m,"Mediated JOLs",1,126,2024-10-09T19:48:03+00:00,0.28992414474487,1,versionA_stim.csv,ReadVersion.csv,Read,Read1,TRAP,MAN,Study2,M,70,65,Study,User,-,,Study/JOL,"Study Phase2",155,,,-1,-1,,,,1
w10166559CB,kja36ard2m,"Mediated JOLs",1,127,2024-10-09T19:48:03+00:00,0.2882719039917,1,versionA_stim.csv,ReadVersion.csv,Read,Read1,RAZOR,ARM,Study2,M,75,75,Study,User,-,,Study/JOL,"Study Phase2",172,,,-1,-1,,,,1
w10166559CB,kja36ard2m,"Mediated JOLs",1,128,2024-10-09T19:48:04+00:00,0.29907202720642,1,versionA_stim.csv,ReadVersion.csv,Read,Read1,CHERRY,RED,Study2,F,80,89,Study,User,-,,Study/JOL,"Study Phase2",182,,,-1,-1,,,,1
w10166559CB,kja36ard2m,"Mediated JOLs",1,129,2024-10-09T19:48:04+00:00,0.27371311187744,1,versionA_stim.csv,ReadVersion.csv,Read,Read1,NURSE,COURT,Study2,M,66,100,Study,User,-,,Study/JOL,"Study Phase2",152,,,-1,-1,,,,1
w10166559CB,kja36ard2m,"Mediated JOLs",1,130,2024-10-09T19:48:04+00:00,0.3196120262146,1,versionA_stim.csv,ReadVersion.csv,Read,Read1,INCENSE,SMELL,Study2,F,83,97,Study,User,-,,Study/JOL,"Study Phase2",206,,,-1,-1,,,,1
w10166559CB,kja36ard2m,"Mediated JOLs",1,131,2024-10-09T19:48:05+00:00,0.31712985038757,1,versionA_stim.csv,ReadVersion.csv,Read,Read1,DEATH,BUSINESS,Study2,U,99,69,Study,User,-,,Study/JOL,"Study Phase2",206,,,-1,-1,,,,1
w10166559CB,kja36ard2m,"Mediated JOLs",1,132,2024-10-09T19:48:05+00:00,0.30706310272217,1,versionA_stim.csv,ReadVersion.csv,Read,Read1,HORNET,STING,Study2,F,85,106,Study,User,-,,Study/JOL,"Study Phase2",191,,,-1,-1,,,,1
w10166559CB,kja36ard2m,"Mediated JOLs",1,133,2024-10-09T19:48:05+00:00,0.29409790039062,1,versionA_stim.csv,ReadVersion.csv,Read,Read1,FEUD,FIGHT,Study2,F,86,102,Study,User,-,,Study/JOL,"Study Phase2",188,,,-1,-1,,,,1
w10166559CB,kja36ard2m,"Mediated JOLs",1,134,2024-10-09T19:48:05+00:00,0.31832313537598,1,versionA_stim.csv,ReadVersion.csv,Read,Read1,WINDOW,HANDLE,Study2,M,74,94,Study,User,-,,Study/JOL,"Study Phase2",201,,,-1,-1,,,,1
w10166559CB,kja36ard2m,"Mediated JOLs",1,135,2024-10-09T19:48:06+00:00,0.94387483596802,1,versionA_stim.csv,ReadVersion.csv,Read,Read1,CACTUS,PLANT,Study2,F,76,82,Study,User,-,,Study/JOL,"Study Phase2",816,,,-1,-1,,,,1
w10166559CB,kja36ard2m,"Mediated JOLs",1,136,2024-10-09T19:48:07+00:00,0.48743295669556,1,versionA_stim.csv,ReadVersion.csv,Read,Read1,PUSH,CLUTTER,Study2,U,96,76,Study,User,-,,Study/JOL,"Study Phase2",363,,,-1,-1,,,,1
w10166559CB,kja36ard2m,"Mediated JOLs",1,137,2024-10-09T19:48:07+00:00,0.18802809715271,1,versionA_stim.csv,ReadVersion.csv,Read,Read1,HAPPY,CAR,Study2,U,92,62,Study,User,-,,Study/JOL,"Study Phase2",49,,,-1,-1,,,,1
w10166559CB,kja36ard2m,"Mediated JOLs",1,138,2024-10-09T19:48:07+00:00,0.2910840511322,1,versionA_stim.csv,ReadVersion.csv,Read,Read1,SICK,HIDE,Study2,U,100,92,Study,User,-,,Study/JOL,"Study Phase2",166,,,-1,-1,,,,1
w10166559CB,kja36ard2m,"Mediated JOLs",1,139,2024-10-09T19:48:08+00:00,0.33312296867371,1,versionA_stim.csv,ReadVersion.csv,Read,Read1,CHILL,COLD,Study2,F,87,83,Study,User,-,,Study/JOL,"Study Phase2",210,,,-1,-1,,,,1
w10166559CB,kja36ard2m,"Mediated JOLs",1,140,2024-10-09T19:48:08+00:00,0.30382990837097,1,versionA_stim.csv,ReadVersion.csv,Read,Read1,REALITY,WATER,Study2,M,64,99,Study,User,-,,Study/JOL,"Study Phase2",180,,,-1,-1,,,,1
w10166559CB,kja36ard2m,"Mediated JOLs",1,141,2024-10-09T19:48:08+00:00,0.33695602416992,1,versionA_stim.csv,ReadVersion.csv,Read,Read1,BRIDGE,WATER,Study2,F,90,68,Study,User,-,,Study/JOL,"Study Phase2",215,,,-1,-1,,,,1
w10166559CB,kja36ard2m,"Mediated JOLs",1,142,2024-10-09T19:48:09+00:00,0.30611515045166,1,versionA_stim.csv,ReadVersion.csv,Read,Read1,VALLEY,TOP,Study2,M,73,86,Study,User,-,,Study/JOL,"Study Phase2",193,,,-1,-1,,,,1
w10166559CB,kja36ard2m,"Mediated JOLs",1,143,2024-10-09T19:48:09+00:00,0.30635190010071,1,versionA_stim.csv,ReadVersion.csv,Read,Read1,BENCH,HORN,Study2,U,98,85,Study,User,-,,Study/JOL,"Study Phase2",189,,,-1,-1,,,,1
w10166559CB,kja36ard2m,"Mediated JOLs",1,144,2024-10-09T19:48:09+00:00,0.32983112335205,1,versionA_stim.csv,ReadVersion.csv,Read,Read1,RAKE,PLANT,Study2,M,69,91,Study,User,-,,Study/JOL,"Study Phase2",217,,,-1,-1,,,,1
w10166559CB,kja36ard2m,"Mediated JOLs",1,145,2024-10-09T19:48:10+00:00,0.30214476585388,1,versionA_stim.csv,ReadVersion.csv,Read,Read1,MIRROR,CHILDREN,Study2,U,104,81,Study,User,-,,Study/JOL,"Study Phase2",190,,,-1,-1,,,,1
w10166559CB,kja36ard2m,"Mediated JOLs",1,146,2024-10-09T19:48:10+00:00,0.15300917625427,1,versionA_stim.csv,ReadVersion.csv,Read,Read1,PANTS,DOG,Study2,M,63,88,Study,User,-,,Study/JOL,"Study Phase2",48,,,-1,-1,,,,1
w10166559CB,kja36ard2m,"Mediated JOLs",1,147,2024-10-09T19:48:10+00:00,0.3093478679657,1,versionA_stim.csv,ReadVersion.csv,Read,Read1,EYES,TASTE,Study2,M,65,71,Study,User,-,,Study/JOL,"Study Phase2",196,,,-1,-1,,,,1
w10166559CB,kja36ard2m,"Mediated JOLs",1,148,2024-10-09T19:48:10+00:00,0.32234811782837,1,versionA_stim.csv,ReadVersion.csv,Read,Read1,BLAZE,FIRE,Study2,F,81,70,Study,User,-,,Study/JOL,"Study Phase2",193,,,-1,-1,,,,1
w10166559CB,kja36ard2m,"Mediated JOLs",1,149,2024-10-09T19:48:11+00:00,0.96936988830566,1,versionA_stim.csv,ReadVersion.csv,Read,Read1,WASP,BUG,Study2,F,89,84,Study,User,-,,Study/JOL,"Study Phase2",841,,,-1,-1,,,,1
w10166559CB,kja36ard2m,"Mediated JOLs",1,150,2024-10-09T19:48:12+00:00,0.31440305709839,1,versionA_stim.csv,ReadVersion.csv,Read,Read1,DIETARY,SACK,Study2,U,97,98,Study,User,-,,Study/JOL,"Study Phase2",194,,,-1,-1,,,,1
w10166559CB,kja36ard2m,"Mediated JOLs",1,151,2024-10-09T19:48:12+00:00,0.32851910591125,1,versionA_stim.csv,ReadVersion.csv,Read,Read1,SUGAR,RIDDLE,Study2,U,95,77,Study,User,-,,Study/JOL,"Study Phase2",203,,,-1,-1,,,,1
w10166559CB,kja36ard2m,"Mediated JOLs",1,152,2024-10-09T19:48:12+00:00,0.32177996635437,1,versionA_stim.csv,ReadVersion.csv,Read,Read1,BOTH,OUNCE,Study2,U,102,64,Study,User,-,,Study/JOL,"Study Phase2",208,,,-1,-1,,,,1
w10166559CB,kja36ard2m,"Mediated JOLs",1,153,2024-10-09T19:48:13+00:00,0.16855502128601,1,versionA_stim.csv,ReadVersion.csv,Read,Read1,SCHOOL,SIGN,Study2,M,62,101,Study,User,-,,Study/JOL,"Study Phase2",53,,,-1,-1,,,,1
w10166559CB,kja36ard2m,"Mediated JOLs",1,154,2024-10-09T19:48:13+00:00,0.16500091552734,1,versionA_stim.csv,ReadVersion.csv,Read,Read1,GRILL,LEG,Study2,M,72,73,Study,User,-,,Study/JOL,"Study Phase2",62,,,-1,-1,,,,1
w10166559CB,kja36ard2m,"Mediated JOLs",1,155,2024-10-09T19:48:13+00:00,0.17365002632141,1,versionA_stim.csv,ReadVersion.csv,Read,Read1,SUMMER,WHITE,Study2,M,61,79,Study,User,-,,Study/JOL,"Study Phase2",66,,,-1,-1,,,,1
w10166559CB,kja36ard2m,"Mediated JOLs",1,156,2024-10-09T19:48:13+00:00,0.31020998954773,1,versionA_stim.csv,ReadVersion.csv,Read,Read1,LEAGUE,BASEBALL,Study2,F,84,103,Study,User,-,,Study/JOL,"Study Phase2",197,,,-1,-1,,,,1
w10166559CB,kja36ard2m,"Mediated JOLs",1,157,2024-10-09T19:48:13+00:00,0.3130829334259,1,versionA_stim.csv,ReadVersion.csv,Read,Read1,OVEN,WEAVE,Study2,M,71,67,Study,User,-,,Study/JOL,"Study Phase2",197,,,-1,-1,,,,1
w10166559CB,kja36ard2m,"Mediated JOLs",1,158,2024-10-09T19:48:14+00:00,0.28688502311707,1,versionA_stim.csv,ReadVersion.csv,Read,Read1,CAMP,ADVENTURE,BUFFER4,Buffer,110,111,Study,User,-,,Study/JOL,BUFFER2,176,,,-1,-1,,,,1
w10166559CB,kja36ard2m,"Mediated JOLs",1,159,2024-10-09T19:48:14+00:00,0.2907600402832,1,versionA_stim.csv,ReadVersion.csv,Read,Read1,GEESE,GOOSE,BUFFER2,Buffer,51,53,Study,User,-,,Study/JOL,BUFFER2,174,,,-1,-1,,,,1
w10166559CB,kja36ard2m,"Mediated JOLs",1,160,2024-10-09T19:48:14+00:00,0.29119110107422,1,versionA_stim.csv,ReadVersion.csv,Read,Read1,ICE,FROZEN,BUFFER4,Buffer,109,108,Study,User,-,,Study/JOL,BUFFER2,178,,,-1,-1,,,,1
w10166559CB,kja36ard2m,"Mediated JOLs",1,161,2024-10-09T19:48:15+00:00,0.27873992919922,1,versionA_stim.csv,ReadVersion.csv,Read,Read1,SHERRIF,POLICE,BUFFER2,Buffer,52,55,Study,User,-,,Study/JOL,BUFFER2,163,,,-1,-1,,,,1
w10166559CB,kja36ard2m,"Mediated JOLs",1,162,2024-10-09T19:48:15+00:00,0.78210496902466,1,versionA_stim.csv,ReadVersion.csv,Read,Read1,THING,STUFF,BUFFER2,Buffer,55,56,Study,User,-,,Study/JOL,BUFFER2,587,,,-1,-1,,,,1
w10166559CB,kja36ard2m,"Mediated JOLs",1,163,2024-10-09T19:48:17+00:00,1.3282220363617,1,versionA_stim.csv,ReadVersion.csv,Read,Read1,,,,,,0,Instruct,User,-,"You have completed this section. Please press Enter.",Filler_Instruction,Instruct2,1207,,,-1,-1,,,,1
w10166559CB,kja36ard2m,"Mediated JOLs",1,164,2024-10-09T19:50:17+00:00,120.438986063,1,versionA_stim.csv,ReadVersion.csv,Read,Read1,,,,,,0,FreeRecall,120,120,"Please list the 50 US states in alphabetical order. The task will automatically advance to the next screen after two minutes.",,Filler1,120212,"Alabama (AL) Alaska (AK) Arizona (AZ) Arkansas (AR) California (CA) Colorado (CO) Connecticut (CT) Delaware (DE) Florida (FL) Georgia (GA) Hawaii (HI) Idaho (ID) Illinois (IL) Indiana (IN) Iowa (IA) Kansas (KS) Kentucky (KY) Louisiana (LA) Maine (ME) Maryland (MD) Massachusetts (MA) Michigan (MI) Minnesota (MN) Mississippi (MS) Missouri (MO) Montana (MT) Nebraska (NE) Nevada (NV) New Hampshire (NH) New Jersey (NJ) New Mexico (NM) New York (NY) North Carolina (NC) North Dakota (ND) Ohio (OH) Oklahoma (OK) Oregon (OR) Pennsylvania (PA) Rhode Island (RI) South Carolina (SC) South Dakota (SD) Tennessee (TN) Texas (TX) Utah (UT) Vermont (VT) Virginia (VA) Washington (WA) West Virginia (WV) Wisconsin (WI) Wyoming (WY)",0,-1,-1,0,0,,0.415
w10166559CB,kja36ard2m,"Mediated JOLs",1,165,2024-10-09T19:50:28+00:00,11.062860965729,1,versionA_stim.csv,ReadVersion.csv,Read,Read1,,,,,,0,Instruct,-,10,"You will now be presented with the first word from each of the previously studied item pairs. Please type the missing word. If you do not know the word, you may guess or press Enter to skip forward to the next pair.",,Instruct3,10925,,,-1,-1,,,,1
w10166559CB,kja36ard2m,"Mediated JOLs",1,166,2024-10-09T19:50:31+00:00,3.0237410068512,1,versionA_stim.csv,ReadVersion.csv,Read,Read1,BLAZE,FIRE,Study2,F,81,70,Test,User,-,,Recall,Recall2,2909,Fire,100,2307,2780,1,1,,1
w10166559CB,kja36ard2m,"Mediated JOLs",1,167,2024-10-09T19:50:34+00:00,3.1035549640656,1,versionA_stim.csv,ReadVersion.csv,Read,Read1,FEUD,FIGHT,Study2,F,86,102,Test,User,-,,Recall,Recall2,2985,Fight,100,1166,2545,1,1,,1
w10166559CB,kja36ard2m,"Mediated JOLs",1,168,2024-10-09T19:50:37+00:00,2.4173419475555,1,versionA_stim.csv,ReadVersion.csv,Read,Read1,BRIDGE,WATER,Study2,F,90,68,Test,User,-,,Recall,Recall2,2294,River,40,1446,2201,0,0,,1
w10166559CB,kja36ard2m,"Mediated JOLs",1,169,2024-10-09T19:50:41+00:00,4.3944361209869,1,versionA_stim.csv,ReadVersion.csv,Read,Read1,ART,WOLF,Study2,U,93,63,Test,User,-,,Recall,Recall2,4274,Pencil,20,1359,4004,0,0,,1
w10166559CB,kja36ard2m,"Mediated JOLs",1,170,2024-10-09T19:50:44+00:00,2.5388867855072,1,versionA_stim.csv,ReadVersion.csv,Read,Read1,CHOP,CUT,Study2,F,77,87,Test,User,-,,Recall,Recall2,2423,Cut,100,1942,2280,1,1,,1
w10166559CB,kja36ard2m,"Mediated JOLs",1,171,2024-10-09T19:50:46+00:00,2.4434480667114,1,versionA_stim.csv,ReadVersion.csv,Read,Read1,INCENSE,SMELL,Study2,F,83,97,Test,User,-,,Recall,Recall2,2316,Smoke,60,1693,2199,0,0,,1
w10166559CB,kja36ard2m,"Mediated JOLs",1,172,2024-10-09T19:50:48+00:00,2.1696710586548,1,versionA_stim.csv,ReadVersion.csv,Read,Read1,PUSH,CLUTTER,Study2,U,96,76,Test,User,-,,Recall,Recall2,2046,Pull,18.181818181818,1303,1924,0,0,,1
w10166559CB,kja36ard2m,"Mediated JOLs",1,173,2024-10-09T19:50:50+00:00,1.6893720626831,1,versionA_stim.csv,ReadVersion.csv,Read,Read1,RAKE,PLANT,Study2,M,69,91,Test,User,-,,Recall,Recall2,1521,Cake,22.222222222222,983,1412,0,0,,1
w10166559CB,kja36ard2m,"Mediated JOLs",1,174,2024-10-09T19:50:52+00:00,2.1598958969116,1,versionA_stim.csv,ReadVersion.csv,Read,Read1,BENCH,HORN,Study2,U,98,85,Test,User,-,,Recall,Recall2,2037,Curl,25,1470,1840,0,0,,1
w10166559CB,kja36ard2m,"Mediated JOLs",1,175,2024-10-09T19:50:55+00:00,3.2195410728455,1,versionA_stim.csv,ReadVersion.csv,Read,Read1,SICK,HIDE,Study2,U,100,92,Test,User,-,,Recall,Recall2,3100,Stuff,0,2143,2972,0,0,,1
w10166559CB,kja36ard2m,"Mediated JOLs",1,176,2024-10-09T19:50:58+00:00,2.7233099937439,1,versionA_stim.csv,ReadVersion.csv,Read,Read1,DIETARY,SACK,Study2,U,97,98,Test,User,-,,Recall,Recall2,2605,food,0,2037,2504,0,0,,1
w10166559CB,kja36ard2m,"Mediated JOLs",1,177,2024-10-09T19:51:04+00:00,5.7892889976501,1,versionA_stim.csv,ReadVersion.csv,Read,Read1,TRAP,MAN,Study2,M,70,65,Test,User,-,,Recall,Recall2,5661,"star wars",16.666666666667,2337,4891,0,0,,1
w10166559CB,kja36ard2m,"Mediated JOLs",1,178,2024-10-09T19:51:07+00:00,3.0942850112915,1,versionA_stim.csv,ReadVersion.csv,Read,Read1,ATTIRE,CLOTHES,Study2,F,79,66,Test,User,-,,Recall,Recall2,2973,clothes,100,1983,2859,1,1,,1
w10166559CB,kja36ard2m,"Mediated JOLs",1,179,2024-10-09T19:51:11+00:00,3.6743249893188,1,versionA_stim.csv,ReadVersion.csv,Read,Read1,CACTUS,PLANT,Study2,F,76,82,Test,User,-,,Recall,Recall2,3545,water,40,2856,3480,0,0,,1
w10166559CB,kja36ard2m,"Mediated JOLs",1,180,2024-10-09T19:51:12+00:00,1.8219819068909,1,versionA_stim.csv,ReadVersion.csv,Read,Read1,OVEN,WEAVE,Study2,M,71,67,Test,User,-,,Recall,Recall2,1701,mitt,0,1101,1574,0,0,,1
w10166559CB,kja36ard2m,"Mediated JOLs",1,181,2024-10-09T19:51:15+00:00,2.400407075882,1,versionA_stim.csv,ReadVersion.csv,Read,Read1,LEAGUE,BASEBALL,Study2,F,84,103,Test,User,-,,Recall,Recall2,2279,NFL,18.181818181818,1441,2057,0,0,,1
w10166559CB,kja36ard2m,"Mediated JOLs",1,182,2024-10-09T19:51:18+00:00,3.1753878593445,1,versionA_stim.csv,ReadVersion.csv,Read,Read1,PANTS,DOG,Study2,M,63,88,Test,User,-,,Recall,Recall2,2981,trance,0,2174,2841,0,0,,1
w10166559CB,kja36ard2m,"Mediated JOLs",1,183,2024-10-09T19:51:20+00:00,1.7766962051392,1,versionA_stim.csv,ReadVersion.csv,Read,Read1,SUGAR,RIDDLE,Study2,U,95,77,Test,User,-,,Recall,Recall2,1655,spice,36.363636363636,1008,1533,0,0,,1
w10166559CB,kja36ard2m,"Mediated JOLs",1,184,2024-10-09T19:51:22+00:00,2.1668767929077,1,versionA_stim.csv,ReadVersion.csv,Read,Read1,HORNET,STING,Study2,F,85,106,Test,User,-,,Recall,Recall2,2037,sting,100,1411,1908,1,1,,1
w10166559CB,kja36ard2m,"Mediated JOLs",1,185,2024-10-09T19:51:24+00:00,2.2840051651001,1,versionA_stim.csv,ReadVersion.csv,Read,Read1,RAZOR,ARM,Study2,M,75,75,Test,User,-,,Recall,Recall2,2163,sharp,50,1242,1928,0,0,,1
w10166559CB,kja36ard2m,"Mediated JOLs",1,186,2024-10-09T19:51:26+00:00,1.8567819595337,1,versionA_stim.csv,ReadVersion.csv,Read,Read1,CHILL,COLD,Study2,F,87,83,Test,User,-,,Recall,Recall2,1734,cold,100,1206,1615,1,1,,1
w10166559CB,kja36ard2m,"Mediated JOLs",1,187,2024-10-09T19:51:29+00:00,3.0768311023712,1,versionA_stim.csv,ReadVersion.csv,Read,Read1,CHISEL,HAMMER,Study2,F,78,90,Test,User,-,,Recall,Recall2,2952,sculp,0,1870,2656,0,0,,1
w10166559CB,kja36ard2m,"Mediated JOLs",1,188,2024-10-09T19:51:32+00:00,2.9350559711456,1,versionA_stim.csv,ReadVersion.csv,Read,Read1,LEASE,TOIL,Study2,U,101,93,Test,User,-,,Recall,Recall2,2810,money,22.222222222222,2113,2737,0,0,,1
w10166559CB,kja36ard2m,"Mediated JOLs",1,189,2024-10-09T19:51:35+00:00,3.0944299697876,1,versionA_stim.csv,ReadVersion.csv,Read,Read1,REALITY,WATER,Study2,M,64,99,Test,User,-,,Recall,Recall2,2869,real,22.222222222222,2293,2709,0,0,,1
w10166559CB,kja36ard2m,"Mediated JOLs",1,190,2024-10-09T19:51:38+00:00,2.306431055069,1,versionA_stim.csv,ReadVersion.csv,Read,Read1,SOAP,THIRST,Study2,M,67,74,Test,User,-,,Recall,Recall2,2130,clean,0,965,1936,0,0,,1
w10166559CB,kja36ard2m,"Mediated JOLs",1,191,2024-10-09T19:51:39+00:00,1.8426239490509,1,versionA_stim.csv,ReadVersion.csv,Read,Read1,HAPPY,CAR,Study2,U,92,62,Test,User,-,,Recall,Recall2,1712,sa,40,1034,1397,0,0,,1
w10166559CB,kja36ard2m,"Mediated JOLs",1,192,2024-10-09T19:51:42+00:00,2.1165790557861,1,versionA_stim.csv,ReadVersion.csv,Read,Read1,EYES,TASTE,Study2,M,65,71,Test,User,-,,Recall,Recall2,1999,,0,-1,-1,0,0,,1
w10166559CB,kja36ard2m,"Mediated JOLs",1,193,2024-10-09T19:51:42+00:00,0.93150877952576,1,versionA_stim.csv,ReadVersion.csv,Read,Read1,MIRROR,CHILDREN,Study2,U,104,81,Test,User,-,,Recall,Recall2,806,,0,-1,-1,0,0,,1
w10166559CB,kja36ard2m,"Mediated JOLs",1,194,2024-10-09T19:51:46+00:00,3.5514571666718,1,versionA_stim.csv,ReadVersion.csv,Read,Read1,NURSE,COURT,Study2,M,66,100,Test,User,-,,Recall,Recall2,3428,hospital,30.769230769231,2191,3224,0,0,,1
w10166559CB,kja36ard2m,"Mediated JOLs",1,195,2024-10-09T19:51:48+00:00,1.6262769699097,1,versionA_stim.csv,ReadVersion.csv,Read,Read1,CASH,STUDY,Study2,U,105,95,Test,User,-,,Recall,Recall2,1505,money,20,831,1410,0,0,,1
w10166559CB,kja36ard2m,"Mediated JOLs",1,196,2024-10-09T19:51:53+00:00,4.8959150314331,1,versionA_stim.csv,ReadVersion.csv,Read,Read1,SCHOOL,SIGN,Study2,M,62,101,Test,User,-,,Recall,Recall2,4776,Life,25,1578,4668,0,0,,1
w10166559CB,kja36ard2m,"Mediated JOLs",1,197,2024-10-09T19:51:55+00:00,2.3530850410461,1,versionA_stim.csv,ReadVersion.csv,Read,Read1,GRILL,LEG,Study2,M,72,73,Test,User,-,,Recall,Recall2,2235,burger,22.222222222222,1442,2094,0,0,,1
w10166559CB,kja36ard2m,"Mediated JOLs",1,198,2024-10-09T19:51:57+00:00,1.7380018234253,1,versionA_stim.csv,ReadVersion.csv,Read,Read1,SUMMER,WHITE,Study2,M,61,79,Test,User,-,,Recall,Recall2,1621,time,44.444444444444,938,1477,0,0,,1
w10166559CB,kja36ard2m,"Mediated JOLs",1,199,2024-10-09T19:51:59+00:00,2.0885901451111,1,versionA_stim.csv,ReadVersion.csv,Read,Read1,KING,VASE,Study2,U,91,105,Test,User,-,,Recall,Recall2,1971,henry,22.222222222222,1232,1844,0,0,,1
w10166559CB,kja36ard2m,"Mediated JOLs",1,200,2024-10-09T19:52:04+00:00,4.9396669864655,1,versionA_stim.csv,ReadVersion.csv,Read,Read1,VALLEY,TOP,Study2,M,73,86,Test,User,-,,Recall,Recall2,4815,"canyon ",22.222222222222,3819,4633,0,0,,1
w10166559CB,kja36ard2m,"Mediated JOLs",1,201,2024-10-09T19:52:06+00:00,2.6076719760895,1,versionA_stim.csv,ReadVersion.csv,Read,Read1,WINDOW,HANDLE,Study2,M,74,94,Test,User,-,,Recall,Recall2,2489,clean,36.363636363636,1739,2356,0,0,,1
w10166559CB,kja36ard2m,"Mediated JOLs",1,202,2024-10-09T19:52:08+00:00,2.1373200416565,1,versionA_stim.csv,ReadVersion.csv,Read,Read1,CHERRY,RED,Study2,F,80,89,Test,User,-,,Recall,Recall2,2008,eat,33.333333333333,1538,1903,0,0,,1
w10166559CB,kja36ard2m,"Mediated JOLs",1,203,2024-10-09T19:52:11+00:00,2.6134040355682,1,versionA_stim.csv,ReadVersion.csv,Read,Read1,HERD,COW,Study2,F,88,72,Test,User,-,,Recall,Recall2,2484,group,25,1359,2265,0,0,,1
w10166559CB,kja36ard2m,"Mediated JOLs",1,204,2024-10-09T19:52:13+00:00,2.1853809356689,1,versionA_stim.csv,ReadVersion.csv,Read,Read1,DOCUMENT,PAPER,Study2,F,82,78,Test,User,-,,Recall,Recall2,1993,paper,100,1384,1846,1,1,,1
w10166559CB,kja36ard2m,"Mediated JOLs",1,205,2024-10-09T19:52:14+00:00,0.6533739566803,1,versionA_stim.csv,ReadVersion.csv,Read,Read1,ARTERY,BRONZE,Study2,U,103,80,Test,User,-,,Recall,Recall2,529,,0,-1,-1,0,0,,1
w10166559CB,kja36ard2m,"Mediated JOLs",1,206,2024-10-09T19:52:16+00:00,2.2065510749817,1,versionA_stim.csv,ReadVersion.csv,Read,Read1,WASP,BUG,Study2,F,89,84,Test,User,-,,Recall,Recall2,2082,sting,25,1415,1928,0,0,,1
w10166559CB,kja36ard2m,"Mediated JOLs",1,207,2024-10-09T19:52:18+00:00,2.1220719814301,1,versionA_stim.csv,ReadVersion.csv,Read,Read1,DEATH,BUSINESS,Study2,U,99,69,Test,User,-,,Recall,Recall2,2002,valley,14.285714285714,1137,1843,0,0,,1
w10166559CB,kja36ard2m,"Mediated JOLs",1,208,2024-10-09T19:52:22+00:00,4.0213739871979,1,versionA_stim.csv,ReadVersion.csv,Read,Read1,STRONG,ACCIDENT,Study2,U,94,104,Test,User,-,,Recall,Recall2,3869,big,18.181818181818,1372,3718,0,0,,1
w10166559CB,kja36ard2m,"Mediated JOLs",1,209,2024-10-09T19:52:28+00:00,5.7241370677948,1,versionA_stim.csv,ReadVersion.csv,Read,Read1,BOTH,OUNCE,Study2,U,102,64,Test,User,-,,Recall,Recall2,5557,stuff,20,4713,5423,0,0,,1
w10166559CB,kja36ard2m,"Mediated JOLs",1,210,2024-10-09T19:52:30+00:00,2.1282198429108,1,versionA_stim.csv,ReadVersion.csv,Read,Read1,HEAVY,BIRD,Study2,M,68,96,Test,User,-,,Recall,Recall2,2000,big,57.142857142857,1589,1874,0,0,,1
w10166559CB,kja36ard2m,"Mediated JOLs",1,211,2024-10-09T19:52:32+00:00,1.6934099197388,1,versionA_stim.csv,ReadVersion.csv,Read,Read1,,,,,,0,Instruct,User,-,"You have completed this section. Please press Enter.",,Instruct7,1573,,,-1,-1,,,,1
w10166559CB,kja36ard2m,"Mediated JOLs",1,212,2024-10-09T19:52:34+00:00,2.3051252365112,1,versionA_stim.csv,ReadVersion.csv,Read,Read1,,,,,,0,Instruct,User,-,"The following screen will ask you a few questions abour your experience today. You must complete these questions to receive credit.",,Instruct8,2176,,,-1,-1,,,,1
