Username,ID,ExperimentName,Session,Trial,Date,TimeDif,"Condition Number","Stimuli File","Order File","Condition Description","Condition Notes",Stimuli*Cue,Stimuli*Answer,Stimuli*Shuffle,"Stimuli*Stimuli Notes",Stimuli*Value,Procedure*Item,"Procedure*Trial Type","Procedure*Max Time","Procedure*Min Time",Procedure*Text,"Procedure*Procedure Notes",Procedure*Shuffle,Response*RT,Response*Response,Response*Accuracy,Response*RTfirst,Response*RTlast,Response*strictAcc,Response*lenientAcc,Response*focus,Response*Focus
w10181374_LC,u68vecfjwr,"Mediated JOLs",1,1,2024-11-05T04:36:15+00:00,6.0980770587921,3,versionB_stim.csv,ReadVersion.csv,Read,Read2,,,,,,0,Instruct,-,5,"In this section, you will be presented with a series of word pairs. Please study each word pair! Your memory will be tested!",Initial_Instruct,Instruct1,5999,,,-1,-1,,,,1
w10181374_LC,u68vecfjwr,"Mediated JOLs",1,2,2024-11-05T04:36:17+00:00,1.9538128376007,3,versionB_stim.csv,ReadVersion.csv,Read,Read2,,,,,,0,Instruct,User,-,"You will now begin. Press Enter when you are ready to begin.",,Instruct16,1815,,,-1,-1,,,,1
w10181374_LC,u68vecfjwr,"Mediated JOLs",1,3,2024-11-05T04:36:19+00:00,2.0513980388641,3,versionB_stim.csv,ReadVersion.csv,Read,Read2,DAYS,WEEKS,BUFFER3,Buffer,1,3,Study,User,-,,Study/JOL,BUFFER,1914,,,-1,-1,,,,1
w10181374_LC,u68vecfjwr,"Mediated JOLs",1,4,2024-11-05T04:36:21+00:00,1.1790380477905,3,versionB_stim.csv,ReadVersion.csv,Read,Read2,SPRING,MARCH,BUFFER3,Buffer,4,6,Study,User,-,,Study/JOL,BUFFER,1042,,,-1,-1,,,,1
w10181374_LC,u68vecfjwr,"Mediated JOLs",1,5,2024-11-05T04:36:22+00:00,1.3150260448456,3,versionB_stim.csv,ReadVersion.csv,Read,Read2,OCTOBER,SPOOKY,BUFFER3,Buffer,5,4,Study,User,-,,Study/JOL,BUFFER,1180,,,-1,-1,,,,1
w10181374_LC,u68vecfjwr,"Mediated JOLs",1,6,2024-11-05T04:36:23+00:00,1.2065739631653,3,versionB_stim.csv,ReadVersion.csv,Read,Read2,MONTH,YEAR,BUFFER3,Buffer,2,5,Study,User,-,,Study/JOL,BUFFER,1070,,,-1,-1,,,,1
w10181374_LC,u68vecfjwr,"Mediated JOLs",1,7,2024-11-05T04:36:24+00:00,1.3255190849304,3,versionB_stim.csv,ReadVersion.csv,Read,Read2,TOOL,SHED,BUFFER3,Buffer,3,2,Study,User,-,,Study/JOL,BUFFER,1188,,,-1,-1,,,,1
w10181374_LC,u68vecfjwr,"Mediated JOLs",1,8,2024-11-05T04:36:25+00:00,1.1001439094543,3,versionB_stim.csv,ReadVersion.csv,Read,Read2,BLAZE,FIRE,Study2,F,26,8,Study,User,-,,Study/JOL,"Study Phase",961,,,-1,-1,,,,1
w10181374_LC,u68vecfjwr,"Mediated JOLs",1,9,2024-11-05T04:36:28+00:00,2.0293729305267,3,versionB_stim.csv,ReadVersion.csv,Read,Read2,KING,VASE,Study2,U,36,24,Study,User,-,,Study/JOL,"Study Phase",1892,,,-1,-1,,,,1
w10181374_LC,u68vecfjwr,"Mediated JOLs",1,10,2024-11-05T04:36:29+00:00,1.0567309856415,3,versionB_stim.csv,ReadVersion.csv,Read,Read2,SUMMER,WHITE,Study2,M,6,36,Study,User,-,,Study/JOL,"Study Phase",920,,,-1,-1,,,,1
w10181374_LC,u68vecfjwr,"Mediated JOLs",1,11,2024-11-05T04:36:30+00:00,1.3992211818695,3,versionB_stim.csv,ReadVersion.csv,Read,Read2,ARTERY,BRONZE,Study2,U,48,27,Study,User,-,,Study/JOL,"Study Phase",1260,,,-1,-1,,,,1
w10181374_LC,u68vecfjwr,"Mediated JOLs",1,12,2024-11-05T04:36:31+00:00,0.99410200119019,3,versionB_stim.csv,ReadVersion.csv,Read,Read2,CHERRY,RED,Study2,F,25,39,Study,User,-,,Study/JOL,"Study Phase",857,,,-1,-1,,,,1
w10181374_LC,u68vecfjwr,"Mediated JOLs",1,13,2024-11-05T04:36:32+00:00,0.97686576843262,3,versionB_stim.csv,ReadVersion.csv,Read,Read2,MIRROR,CHILDREN,Study2,U,49,22,Study,User,-,,Study/JOL,"Study Phase",829,,,-1,-1,,,,1
w10181374_LC,u68vecfjwr,"Mediated JOLs",1,14,2024-11-05T04:36:33+00:00,0.92809009552002,3,versionB_stim.csv,ReadVersion.csv,Read,Read2,EYES,TASTE,Study2,M,10,44,Study,User,-,,Study/JOL,"Study Phase",793,,,-1,-1,,,,1
w10181374_LC,u68vecfjwr,"Mediated JOLs",1,15,2024-11-05T04:36:34+00:00,1.3765659332275,3,versionB_stim.csv,ReadVersion.csv,Read,Read2,BRIDGE,WATER,Study2,F,35,19,Study,User,-,,Study/JOL,"Study Phase",1242,,,-1,-1,,,,1
w10181374_LC,u68vecfjwr,"Mediated JOLs",1,16,2024-11-05T04:36:35+00:00,0.9699821472168,3,versionB_stim.csv,ReadVersion.csv,Read,Read2,HAPPY,CAR,Study2,U,37,38,Study,User,-,,Study/JOL,"Study Phase",831,,,-1,-1,,,,1
w10181374_LC,u68vecfjwr,"Mediated JOLs",1,17,2024-11-05T04:36:36+00:00,1.1467800140381,3,versionB_stim.csv,ReadVersion.csv,Read,Read2,VALLEY,TOP,Study2,M,18,9,Study,User,-,,Study/JOL,"Study Phase",1004,,,-1,-1,,,,1
w10181374_LC,u68vecfjwr,"Mediated JOLs",1,18,2024-11-05T04:36:38+00:00,1.1945109367371,3,versionB_stim.csv,ReadVersion.csv,Read,Read2,BOTH,OUNCE,Study2,U,47,25,Study,User,-,,Study/JOL,"Study Phase",1060,,,-1,-1,,,,1
w10181374_LC,u68vecfjwr,"Mediated JOLs",1,19,2024-11-05T04:36:39+00:00,0.97027492523193,3,versionB_stim.csv,ReadVersion.csv,Read,Read2,STRONG,ACCIDENT,Study2,U,39,11,Study,User,-,,Study/JOL,"Study Phase",836,,,-1,-1,,,,1
w10181374_LC,u68vecfjwr,"Mediated JOLs",1,20,2024-11-05T04:36:40+00:00,1.0436120033264,3,versionB_stim.csv,ReadVersion.csv,Read,Read2,DEATH,BUSINESS,Study2,U,44,30,Study,User,-,,Study/JOL,"Study Phase",817,,,-1,-1,,,,1
w10181374_LC,u68vecfjwr,"Mediated JOLs",1,21,2024-11-05T04:36:41+00:00,0.95539402961731,3,versionB_stim.csv,ReadVersion.csv,Read,Read2,OVEN,WEAVE,Study2,M,16,7,Study,User,-,,Study/JOL,"Study Phase",817,,,-1,-1,,,,1
w10181374_LC,u68vecfjwr,"Mediated JOLs",1,22,2024-11-05T04:36:41+00:00,0.92708206176758,3,versionB_stim.csv,ReadVersion.csv,Read,Read2,HERD,COW,Study2,F,33,35,Study,User,-,,Study/JOL,"Study Phase",792,,,-1,-1,,,,1
w10181374_LC,u68vecfjwr,"Mediated JOLs",1,23,2024-11-05T04:36:43+00:00,1.0609080791473,3,versionB_stim.csv,ReadVersion.csv,Read,Read2,PUSH,CLUTTER,Study2,U,41,46,Study,User,-,,Study/JOL,"Study Phase",921,,,-1,-1,,,,1
w10181374_LC,u68vecfjwr,"Mediated JOLs",1,24,2024-11-05T04:36:44+00:00,1.2529439926147,3,versionB_stim.csv,ReadVersion.csv,Read,Read2,CHISEL,HAMMER,Study2,F,23,26,Study,User,-,,Study/JOL,"Study Phase",1114,,,-1,-1,,,,1
w10181374_LC,u68vecfjwr,"Mediated JOLs",1,25,2024-11-05T04:36:45+00:00,0.97007298469543,3,versionB_stim.csv,ReadVersion.csv,Read,Read2,CHILL,COLD,Study2,F,32,17,Study,User,-,,Study/JOL,"Study Phase",830,,,-1,-1,,,,1
w10181374_LC,u68vecfjwr,"Mediated JOLs",1,26,2024-11-05T04:36:46+00:00,1.1062259674072,3,versionB_stim.csv,ReadVersion.csv,Read,Read2,HORNET,STING,Study2,F,30,34,Study,User,-,,Study/JOL,"Study Phase",969,,,-1,-1,,,,1
w10181374_LC,u68vecfjwr,"Mediated JOLs",1,27,2024-11-05T04:36:47+00:00,1.1765789985657,3,versionB_stim.csv,ReadVersion.csv,Read,Read2,GRILL,LEG,Study2,M,17,12,Study,User,-,,Study/JOL,"Study Phase",1011,,,-1,-1,,,,1
w10181374_LC,u68vecfjwr,"Mediated JOLs",1,28,2024-11-05T04:36:49+00:00,1.8383729457855,3,versionB_stim.csv,ReadVersion.csv,Read,Read2,NURSE,COURT,Study2,M,11,41,Study,User,-,,Study/JOL,"Study Phase",1698,,,-1,-1,,,,1
w10181374_LC,u68vecfjwr,"Mediated JOLs",1,29,2024-11-05T04:36:50+00:00,1.1641271114349,3,versionB_stim.csv,ReadVersion.csv,Read,Read2,SUGAR,RIDDLE,Study2,U,40,31,Study,User,-,,Study/JOL,"Study Phase",1029,,,-1,-1,,,,1
w10181374_LC,u68vecfjwr,"Mediated JOLs",1,30,2024-11-05T04:36:51+00:00,1.1243119239807,3,versionB_stim.csv,ReadVersion.csv,Read,Read2,LEAGUE,BASEBALL,Study2,F,29,32,Study,User,-,,Study/JOL,"Study Phase",980,,,-1,-1,,,,1
w10181374_LC,u68vecfjwr,"Mediated JOLs",1,31,2024-11-05T04:36:52+00:00,1.2197799682617,3,versionB_stim.csv,ReadVersion.csv,Read,Read2,SOAP,THIRST,Study2,M,12,29,Study,User,-,,Study/JOL,"Study Phase",1081,,,-1,-1,,,,1
w10181374_LC,u68vecfjwr,"Mediated JOLs",1,32,2024-11-05T04:36:54+00:00,1.1804649829865,3,versionB_stim.csv,ReadVersion.csv,Read,Read2,CACTUS,PLANT,Study2,F,21,23,Study,User,-,,Study/JOL,"Study Phase",1038,,,-1,-1,,,,1
w10181374_LC,u68vecfjwr,"Mediated JOLs",1,33,2024-11-05T04:36:55+00:00,1.1449310779572,3,versionB_stim.csv,ReadVersion.csv,Read,Read2,WASP,BUG,Study2,F,34,51,Study,User,-,,Study/JOL,"Study Phase",1007,,,-1,-1,,,,1
w10181374_LC,u68vecfjwr,"Mediated JOLs",1,34,2024-11-05T04:36:56+00:00,0.94082403182983,3,versionB_stim.csv,ReadVersion.csv,Read,Read2,BENCH,HORN,Study2,U,43,37,Study,User,-,,Study/JOL,"Study Phase",798,,,-1,-1,,,,1
w10181374_LC,u68vecfjwr,"Mediated JOLs",1,35,2024-11-05T04:36:57+00:00,0.97408390045166,3,versionB_stim.csv,ReadVersion.csv,Read,Read2,DIETARY,SACK,Study2,U,42,10,Study,User,-,,Study/JOL,"Study Phase",837,,,-1,-1,,,,1
w10181374_LC,u68vecfjwr,"Mediated JOLs",1,36,2024-11-05T04:36:59+00:00,2.578605890274,3,versionB_stim.csv,ReadVersion.csv,Read,Read2,LEASE,TOIL,Study2,U,46,45,Study,User,-,,Study/JOL,"Study Phase",2436,,,-1,-1,,,,1
w10181374_LC,u68vecfjwr,"Mediated JOLs",1,37,2024-11-05T04:37:00+00:00,1.2874600887299,3,versionB_stim.csv,ReadVersion.csv,Read,Read2,RAZOR,ARM,Study2,M,20,48,Study,User,-,,Study/JOL,"Study Phase",1147,,,-1,-1,,,,1
w10181374_LC,u68vecfjwr,"Mediated JOLs",1,38,2024-11-05T04:37:02+00:00,1.0291731357574,3,versionB_stim.csv,ReadVersion.csv,Read,Read2,PANTS,DOG,Study2,M,8,42,Study,User,-,,Study/JOL,"Study Phase",890,,,-1,-1,,,,1
w10181374_LC,u68vecfjwr,"Mediated JOLs",1,39,2024-11-05T04:37:03+00:00,1.0826458930969,3,versionB_stim.csv,ReadVersion.csv,Read,Read2,FEUD,FIGHT,Study2,F,31,49,Study,User,-,,Study/JOL,"Study Phase",943,,,-1,-1,,,,1
w10181374_LC,u68vecfjwr,"Mediated JOLs",1,40,2024-11-05T04:37:04+00:00,1.0014610290527,3,versionB_stim.csv,ReadVersion.csv,Read,Read2,CASH,STUDY,Study2,U,50,20,Study,User,-,,Study/JOL,"Study Phase",860,,,-1,-1,,,,1
w10181374_LC,u68vecfjwr,"Mediated JOLs",1,41,2024-11-05T04:37:05+00:00,1.000951051712,3,versionB_stim.csv,ReadVersion.csv,Read,Read2,HEAVY,BIRD,Study2,M,13,28,Study,User,-,,Study/JOL,"Study Phase",862,,,-1,-1,,,,1
w10181374_LC,u68vecfjwr,"Mediated JOLs",1,42,2024-11-05T04:37:06+00:00,1.0998389720917,3,versionB_stim.csv,ReadVersion.csv,Read,Read2,WINDOW,HANDLE,Study2,M,19,40,Study,User,-,,Study/JOL,"Study Phase",962,,,-1,-1,,,,1
w10181374_LC,u68vecfjwr,"Mediated JOLs",1,43,2024-11-05T04:37:07+00:00,1.0328478813171,3,versionB_stim.csv,ReadVersion.csv,Read,Read2,ATTIRE,CLOTHES,Study2,F,24,18,Study,User,-,,Study/JOL,"Study Phase",898,,,-1,-1,,,,1
w10181374_LC,u68vecfjwr,"Mediated JOLs",1,44,2024-11-05T04:37:08+00:00,1.1090471744537,3,versionB_stim.csv,ReadVersion.csv,Read,Read2,ART,WOLF,Study2,U,38,50,Study,User,-,,Study/JOL,"Study Phase",971,,,-1,-1,,,,1
w10181374_LC,u68vecfjwr,"Mediated JOLs",1,45,2024-11-05T04:37:09+00:00,1.0670747756958,3,versionB_stim.csv,ReadVersion.csv,Read,Read2,INCENSE,SMELL,Study2,F,28,21,Study,User,-,,Study/JOL,"Study Phase",913,,,-1,-1,,,,1
w10181374_LC,u68vecfjwr,"Mediated JOLs",1,46,2024-11-05T04:37:10+00:00,0.97183799743652,3,versionB_stim.csv,ReadVersion.csv,Read,Read2,DOCUMENT,PAPER,Study2,F,27,14,Study,User,-,,Study/JOL,"Study Phase",833,,,-1,-1,,,,1
w10181374_LC,u68vecfjwr,"Mediated JOLs",1,47,2024-11-05T04:37:11+00:00,0.82863807678223,3,versionB_stim.csv,ReadVersion.csv,Read,Read2,RAKE,PLANT,Study2,M,14,43,Study,User,-,,Study/JOL,"Study Phase",692,,,-1,-1,,,,1
w10181374_LC,u68vecfjwr,"Mediated JOLs",1,48,2024-11-05T04:37:12+00:00,0.89220309257507,3,versionB_stim.csv,ReadVersion.csv,Read,Read2,REALITY,WATER,Study2,M,9,33,Study,User,-,,Study/JOL,"Study Phase",754,,,-1,-1,,,,1
w10181374_LC,u68vecfjwr,"Mediated JOLs",1,49,2024-11-05T04:37:13+00:00,0.98988604545593,3,versionB_stim.csv,ReadVersion.csv,Read,Read2,TRAP,MAN,Study2,M,15,15,Study,User,-,,Study/JOL,"Study Phase",853,,,-1,-1,,,,1
w10181374_LC,u68vecfjwr,"Mediated JOLs",1,50,2024-11-05T04:37:13+00:00,0.82335686683655,3,versionB_stim.csv,ReadVersion.csv,Read,Read2,SICK,HIDE,Study2,U,45,16,Study,User,-,,Study/JOL,"Study Phase",685,,,-1,-1,,,,1
w10181374_LC,u68vecfjwr,"Mediated JOLs",1,51,2024-11-05T04:37:15+00:00,1.1080391407013,3,versionB_stim.csv,ReadVersion.csv,Read,Read2,CHOP,CUT,Study2,F,22,13,Study,User,-,,Study/JOL,"Study Phase",959,,,-1,-1,,,,1
w10181374_LC,u68vecfjwr,"Mediated JOLs",1,52,2024-11-05T04:37:15+00:00,0.75096392631531,3,versionB_stim.csv,ReadVersion.csv,Read,Read2,SCHOOL,SIGN,Study2,M,7,47,Study,User,-,,Study/JOL,"Study Phase",615,,,-1,-1,,,,1
w10181374_LC,u68vecfjwr,"Mediated JOLs",1,53,2024-11-05T04:37:16+00:00,1.1358170509338,3,versionB_stim.csv,ReadVersion.csv,Read,Read2,SCARE,FRIGHT,BUFFER1,Buffer,59,58,Study,User,-,,Study/JOL,BUFFER2,996,,,-1,-1,,,,1
w10181374_LC,u68vecfjwr,"Mediated JOLs",1,54,2024-11-05T04:37:17+00:00,0.92957496643066,3,versionB_stim.csv,ReadVersion.csv,Read,Read2,MOON,SPACE,BUFFER2,Buffer,109,107,Study,User,-,,Study/JOL,BUFFER2,788,,,-1,-1,,,,1
w10181374_LC,u68vecfjwr,"Mediated JOLs",1,55,2024-11-05T04:37:18+00:00,0.88814496994019,3,versionB_stim.csv,ReadVersion.csv,Read,Read2,GEESE,GOOSE,BUFFER2,Buffer,106,111,Study,User,-,,Study/JOL,BUFFER2,720,,,-1,-1,,,,1
w10181374_LC,u68vecfjwr,"Mediated JOLs",1,56,2024-11-05T04:37:19+00:00,0.88188886642456,3,versionB_stim.csv,ReadVersion.csv,Read,Read2,MALT,CHOCOLATE,BUFFER2,Buffer,108,109,Study,User,-,,Study/JOL,BUFFER2,733,,,-1,-1,,,,1
w10181374_LC,u68vecfjwr,"Mediated JOLs",1,57,2024-11-05T04:37:20+00:00,1.1945440769196,3,versionB_stim.csv,ReadVersion.csv,Read,Read2,CARROT,POTATO,BUFFER4,Buffer,51,55,Study,User,-,,Study/JOL,BUFFER2,1060,,,-1,-1,,,,1
w10181374_LC,u68vecfjwr,"Mediated JOLs",1,58,2024-11-05T04:37:22+00:00,1.6751410961151,3,versionB_stim.csv,ReadVersion.csv,Read,Read2,,,,,,0,Instruct,User,-,"You have completed this section. Please press Enter.",Filler_Instruction,Instruct2,1537,,,-1,-1,,,,1
w10181374_LC,u68vecfjwr,"Mediated JOLs",1,59,2024-11-05T04:39:22+00:00,120.31451392174,3,versionB_stim.csv,ReadVersion.csv,Read,Read2,,,,,,0,FreeRecall,120,120,"Please list the 50 US states in alphabetical order. The task will automatically advance to the next screen after two minutes.",,Filler1,120003,"Alabama Alaska Arizona Arkansas California Colorado Conneticut Delware Flordia Georgia Hawaii Idaho Illinois Indiana Iowa Kansas Kentucky Louisiana Maine Maryland Massachusetts Michigan Minnesota Mississippi Missouri Montana Nebraska Nevada New Hampshire New Jersey New Mexico New York North Carolina North Dakota Ohio Oklahoma Oregan Pennsylvania Rhode Island South Caro",0,5768,119952,0,0,,1
w10181374_LC,u68vecfjwr,"Mediated JOLs",1,60,2024-11-05T04:39:33+00:00,11.029808044434,3,versionB_stim.csv,ReadVersion.csv,Read,Read2,,,,,,0,Instruct,-,10,"You will now be presented with the first word from each of the previously studied item pairs. Please type the missing word. If you do not know the word, you may guess or press Enter to skip forward to the next pair.",,Instruct3,10831,,,-1,-1,,,,1
w10181374_LC,u68vecfjwr,"Mediated JOLs",1,61,2024-11-05T04:39:41+00:00,7.4321129322052,3,versionB_stim.csv,ReadVersion.csv,Read,Read2,SOAP,THIRST,Study2,M,12,29,Test,User,-,,Recall,Recall1,7289,Bath,40,5491,6148,0,0,,1
w10181374_LC,u68vecfjwr,"Mediated JOLs",1,62,2024-11-05T04:39:43+00:00,2.6253650188446,3,versionB_stim.csv,ReadVersion.csv,Read,Read2,CHILL,COLD,Study2,F,32,17,Test,User,-,,Recall,Recall1,2486,Cold,100,941,1656,1,1,,1
w10181374_LC,u68vecfjwr,"Mediated JOLs",1,63,2024-11-05T04:39:49+00:00,5.7211170196533,3,versionB_stim.csv,ReadVersion.csv,Read,Read2,CASH,STUDY,Study2,U,50,20,Test,User,-,,Recall,Recall1,5580,Business,15.384615384615,3203,4697,0,0,,1
w10181374_LC,u68vecfjwr,"Mediated JOLs",1,64,2024-11-05T04:39:53+00:00,3.7353150844574,3,versionB_stim.csv,ReadVersion.csv,Read,Read2,WINDOW,HANDLE,Study2,M,19,40,Test,User,-,,Recall,Recall1,3594,Pane,60,1644,2182,0,0,,1
w10181374_LC,u68vecfjwr,"Mediated JOLs",1,65,2024-11-05T04:39:55+00:00,2.3568558692932,3,versionB_stim.csv,ReadVersion.csv,Read,Read2,CHOP,CUT,Study2,F,22,13,Test,User,-,,Recall,Recall1,2216,Cut,100,1038,1402,1,1,,1
w10181374_LC,u68vecfjwr,"Mediated JOLs",1,66,2024-11-05T04:39:58+00:00,3.1721050739288,3,versionB_stim.csv,ReadVersion.csv,Read,Read2,DOCUMENT,PAPER,Study2,F,27,14,Test,User,-,,Recall,Recall1,3027,Paper,100,1509,2200,1,1,,1
w10181374_LC,u68vecfjwr,"Mediated JOLs",1,67,2024-11-05T04:40:01+00:00,2.6833610534668,3,versionB_stim.csv,ReadVersion.csv,Read,Read2,HAPPY,CAR,Study2,U,37,38,Test,User,-,,Recall,Recall1,2534,Sad,33.333333333333,1269,1712,0,0,,1
w10181374_LC,u68vecfjwr,"Mediated JOLs",1,68,2024-11-05T04:40:06+00:00,4.9083449840546,3,versionB_stim.csv,ReadVersion.csv,Read,Read2,HORNET,STING,Study2,F,30,34,Test,User,-,,Recall,Recall1,4756,Sting,100,1347,3726,1,1,,1
w10181374_LC,u68vecfjwr,"Mediated JOLs",1,69,2024-11-05T04:40:09+00:00,2.8743360042572,3,versionB_stim.csv,ReadVersion.csv,Read,Read2,BRIDGE,WATER,Study2,F,35,19,Test,User,-,,Recall,Recall1,2727,Gap,25,1526,1784,0,0,,1
w10181374_LC,u68vecfjwr,"Mediated JOLs",1,70,2024-11-05T04:40:14+00:00,5.2495608329773,3,versionB_stim.csv,ReadVersion.csv,Read,Read2,SUMMER,WHITE,Study2,M,6,36,Test,User,-,,Recall,Recall1,5086,White,100,3464,4301,1,1,,1
w10181374_LC,u68vecfjwr,"Mediated JOLs",1,71,2024-11-05T04:40:18+00:00,3.7991170883179,3,versionB_stim.csv,ReadVersion.csv,Read,Read2,BENCH,HORN,Study2,U,43,37,Test,User,-,,Recall,Recall1,3658,Seat,0,2084,2804,0,0,,1
w10181374_LC,u68vecfjwr,"Mediated JOLs",1,72,2024-11-05T04:40:21+00:00,2.9753611087799,3,versionB_stim.csv,ReadVersion.csv,Read,Read2,FEUD,FIGHT,Study2,F,31,49,Test,User,-,,Recall,Recall1,2821,Fight,100,1176,1845,1,1,,1
w10181374_LC,u68vecfjwr,"Mediated JOLs",1,73,2024-11-05T04:40:24+00:00,2.7192738056183,3,versionB_stim.csv,ReadVersion.csv,Read,Read2,CACTUS,PLANT,Study2,F,21,23,Test,User,-,,Recall,Recall1,2574,Tree,22.222222222222,1171,1717,0,0,,1
w10181374_LC,u68vecfjwr,"Mediated JOLs",1,74,2024-11-05T04:40:28+00:00,4.7610831260681,3,versionB_stim.csv,ReadVersion.csv,Read,Read2,VALLEY,TOP,Study2,M,18,9,Test,User,-,,Recall,Recall1,4615,Pretty,22.222222222222,2887,3775,0,0,,1
w10181374_LC,u68vecfjwr,"Mediated JOLs",1,75,2024-11-05T04:40:32+00:00,3.1695339679718,3,versionB_stim.csv,ReadVersion.csv,Read,Read2,ART,WOLF,Study2,U,38,50,Test,User,-,,Recall,Recall1,3008,Work,50,1662,2098,0,0,,1
w10181374_LC,u68vecfjwr,"Mediated JOLs",1,76,2024-11-05T04:40:36+00:00,4.0798540115356,3,versionB_stim.csv,ReadVersion.csv,Read,Read2,CHERRY,RED,Study2,F,25,39,Test,User,-,,Recall,Recall1,3930,Cola,0,1385,3185,0,0,,1
w10181374_LC,u68vecfjwr,"Mediated JOLs",1,77,2024-11-05T04:40:39+00:00,3.378308057785,3,versionB_stim.csv,ReadVersion.csv,Read,Read2,RAKE,PLANT,Study2,M,14,43,Test,User,-,,Recall,Recall1,3231,Tool,22.222222222222,1890,2387,0,0,,1
w10181374_LC,u68vecfjwr,"Mediated JOLs",1,78,2024-11-05T04:40:48+00:00,9.4306700229645,3,versionB_stim.csv,ReadVersion.csv,Read,Read2,EYES,TASTE,Study2,M,10,44,Test,User,-,,Recall,Recall1,9274,Face,44.444444444444,1620,8350,0,0,,1
w10181374_LC,u68vecfjwr,"Mediated JOLs",1,79,2024-11-05T04:40:52+00:00,3.1431219577789,3,versionB_stim.csv,ReadVersion.csv,Read,Read2,GRILL,LEG,Study2,M,17,12,Test,User,-,,Recall,Recall1,2992,Leg,100,1644,2081,1,1,,1
w10181374_LC,u68vecfjwr,"Mediated JOLs",1,80,2024-11-05T04:40:57+00:00,5.0036098957062,3,versionB_stim.csv,ReadVersion.csv,Read,Read2,REALITY,WATER,Study2,M,9,33,Test,User,-,,Recall,Recall1,4858,Fantasy,33.333333333333,2472,3859,0,0,,1
w10181374_LC,u68vecfjwr,"Mediated JOLs",1,81,2024-11-05T04:41:04+00:00,7.836147069931,3,versionB_stim.csv,ReadVersion.csv,Read,Read2,PANTS,DOG,Study2,M,8,42,Test,User,-,,Recall,Recall1,7684,Face,0,2797,6888,0,0,,1
w10181374_LC,u68vecfjwr,"Mediated JOLs",1,82,2024-11-05T04:41:07+00:00,2.7995948791504,3,versionB_stim.csv,ReadVersion.csv,Read,Read2,HEAVY,BIRD,Study2,M,13,28,Test,User,-,,Recall,Recall1,2643,Light,22.222222222222,1306,1886,0,0,,1
w10181374_LC,u68vecfjwr,"Mediated JOLs",1,83,2024-11-05T04:41:12+00:00,4.5034990310669,3,versionB_stim.csv,ReadVersion.csv,Read,Read2,SCHOOL,SIGN,Study2,M,7,47,Test,User,-,,Recall,Recall1,4362,Boring,40,2113,2988,0,0,,1
w10181374_LC,u68vecfjwr,"Mediated JOLs",1,84,2024-11-05T04:41:15+00:00,3.2708170413971,3,versionB_stim.csv,ReadVersion.csv,Read,Read2,WASP,BUG,Study2,F,34,51,Test,User,-,,Recall,Recall1,3123,Sting,25,1612,2124,0,0,,1
w10181374_LC,u68vecfjwr,"Mediated JOLs",1,85,2024-11-05T04:41:18+00:00,3.0100259780884,3,versionB_stim.csv,ReadVersion.csv,Read,Read2,CHISEL,HAMMER,Study2,F,23,26,Test,User,-,,Recall,Recall1,2862,Hammer,100,1187,2189,1,1,,1
w10181374_LC,u68vecfjwr,"Mediated JOLs",1,86,2024-11-05T04:41:21+00:00,2.7608740329742,3,versionB_stim.csv,ReadVersion.csv,Read,Read2,KING,VASE,Study2,U,36,24,Test,User,-,,Recall,Recall1,2614,Vase,100,1324,1847,1,1,,1
w10181374_LC,u68vecfjwr,"Mediated JOLs",1,87,2024-11-05T04:41:23+00:00,2.6539790630341,3,versionB_stim.csv,ReadVersion.csv,Read,Read2,RAZOR,ARM,Study2,M,20,48,Test,User,-,,Recall,Recall1,2505,Arm,100,1350,1675,1,1,,1
w10181374_LC,u68vecfjwr,"Mediated JOLs",1,88,2024-11-05T04:41:28+00:00,4.415109872818,3,versionB_stim.csv,ReadVersion.csv,Read,Read2,BLAZE,FIRE,Study2,F,26,8,Test,User,-,,Recall,Recall1,4274,Fire,100,1456,3542,1,1,,1
w10181374_LC,u68vecfjwr,"Mediated JOLs",1,89,2024-11-05T04:41:33+00:00,4.9619371891022,3,versionB_stim.csv,ReadVersion.csv,Read,Read2,DIETARY,SACK,Study2,U,42,10,Test,User,-,,Recall,Recall1,4823,Restrictions,25,1806,3421,0,0,,1
w10181374_LC,u68vecfjwr,"Mediated JOLs",1,90,2024-11-05T04:41:37+00:00,4.1177649497986,3,versionB_stim.csv,ReadVersion.csv,Read,Read2,PUSH,CLUTTER,Study2,U,41,46,Test,User,-,,Recall,Recall1,3970,Pull,18.181818181818,1887,2641,0,0,,1
w10181374_LC,u68vecfjwr,"Mediated JOLs",1,91,2024-11-05T04:41:41+00:00,3.6706650257111,3,versionB_stim.csv,ReadVersion.csv,Read,Read2,STRONG,ACCIDENT,Study2,U,39,11,Test,User,-,,Recall,Recall1,3514,Weak,16.666666666667,1378,2498,0,0,,1
w10181374_LC,u68vecfjwr,"Mediated JOLs",1,92,2024-11-05T04:41:44+00:00,3.0761258602142,3,versionB_stim.csv,ReadVersion.csv,Read,Read2,NURSE,COURT,Study2,M,11,41,Test,User,-,,Recall,Recall1,2925,Doctor,36.363636363636,1212,2032,0,0,,1
w10181374_LC,u68vecfjwr,"Mediated JOLs",1,93,2024-11-05T04:41:51+00:00,7.7794589996338,3,versionB_stim.csv,ReadVersion.csv,Read,Read2,SICK,HIDE,Study2,U,45,16,Test,User,-,,Recall,Recall1,7632,Chill,44.444444444444,2029,6576,0,0,,1
w10181374_LC,u68vecfjwr,"Mediated JOLs",1,94,2024-11-05T04:41:55+00:00,3.3587551116943,3,versionB_stim.csv,ReadVersion.csv,Read,Read2,ARTERY,BRONZE,Study2,U,48,27,Test,User,-,,Recall,Recall1,3208,Vein,20,1529,2223,0,0,,1
w10181374_LC,u68vecfjwr,"Mediated JOLs",1,95,2024-11-05T04:41:58+00:00,3.1966359615326,3,versionB_stim.csv,ReadVersion.csv,Read,Read2,ATTIRE,CLOTHES,Study2,F,24,18,Test,User,-,,Recall,Recall1,3048,Clothes,100,1109,2385,1,1,,1
w10181374_LC,u68vecfjwr,"Mediated JOLs",1,96,2024-11-05T04:42:02+00:00,4.0333850383759,3,versionB_stim.csv,ReadVersion.csv,Read,Read2,LEASE,TOIL,Study2,U,46,45,Test,User,-,,Recall,Recall1,3890,Apartment,15.384615384615,1739,2896,0,0,,1
w10181374_LC,u68vecfjwr,"Mediated JOLs",1,97,2024-11-05T04:42:05+00:00,2.9531998634338,3,versionB_stim.csv,ReadVersion.csv,Read,Read2,BOTH,OUNCE,Study2,U,47,25,Test,User,-,,Recall,Recall1,2808,None,44.444444444444,1558,2030,0,0,,1
w10181374_LC,u68vecfjwr,"Mediated JOLs",1,98,2024-11-05T04:42:08+00:00,2.8680520057678,3,versionB_stim.csv,ReadVersion.csv,Read,Read2,INCENSE,SMELL,Study2,F,28,21,Test,User,-,,Recall,Recall1,2722,Smell,100,1229,1840,1,1,,1
w10181374_LC,u68vecfjwr,"Mediated JOLs",1,99,2024-11-05T04:42:11+00:00,3.3739790916443,3,versionB_stim.csv,ReadVersion.csv,Read,Read2,LEAGUE,BASEBALL,Study2,F,29,32,Test,User,-,,Recall,Recall1,3202,Baseball,100,1202,2315,1,1,,1
w10181374_LC,u68vecfjwr,"Mediated JOLs",1,100,2024-11-05T04:42:14+00:00,2.7365930080414,3,versionB_stim.csv,ReadVersion.csv,Read,Read2,OVEN,WEAVE,Study2,M,16,7,Test,User,-,,Recall,Recall1,2589,Mitt,0,1031,1696,0,0,,1
w10181374_LC,u68vecfjwr,"Mediated JOLs",1,101,2024-11-05T04:42:17+00:00,3.166316986084,3,versionB_stim.csv,ReadVersion.csv,Read,Read2,HERD,COW,Study2,F,33,35,Test,User,-,,Recall,Recall1,3020,Cow,100,1317,1610,1,1,,1
w10181374_LC,u68vecfjwr,"Mediated JOLs",1,102,2024-11-05T04:42:21+00:00,3.6130199432373,3,versionB_stim.csv,ReadVersion.csv,Read,Read2,DEATH,BUSINESS,Study2,U,44,30,Test,User,-,,Recall,Recall1,3468,Business,100,1208,2645,1,1,,1
w10181374_LC,u68vecfjwr,"Mediated JOLs",1,103,2024-11-05T04:42:25+00:00,3.9204490184784,3,versionB_stim.csv,ReadVersion.csv,Read,Read2,MIRROR,CHILDREN,Study2,U,49,22,Test,User,-,,Recall,Recall1,3775,Mirror,28.571428571429,1717,2780,0,0,,1
w10181374_LC,u68vecfjwr,"Mediated JOLs",1,104,2024-11-05T04:42:29+00:00,4.0753879547119,3,versionB_stim.csv,ReadVersion.csv,Read,Read2,TRAP,MAN,Study2,M,15,15,Test,User,-,,Recall,Recall1,3930,Game,28.571428571429,2670,3068,0,0,,1
w10181374_LC,u68vecfjwr,"Mediated JOLs",1,105,2024-11-05T04:42:34+00:00,4.8813931941986,3,versionB_stim.csv,ReadVersion.csv,Read,Read2,SUGAR,RIDDLE,Study2,U,40,31,Test,User,-,,Recall,Recall1,4730,Sweet,18.181818181818,3124,3921,0,0,,1
w10181374_LC,u68vecfjwr,"Mediated JOLs",1,106,2024-11-05T04:43:00+00:00,26.322390794754,3,versionB_stim.csv,ReadVersion.csv,Read,Read2,,,,,,0,Instruct,-,10,"You will now be presented with a new set of word pairs. Please study each pair. Remember that your memory will be tested! When finished, press Enter to move to the next pair.",Initial_Instruct,Instruct4,26173,,,-1,-1,,,,1
w10181374_LC,u68vecfjwr,"Mediated JOLs",1,107,2024-11-05T04:43:01+00:00,1.2395150661469,3,versionB_stim.csv,ReadVersion.csv,Read,Read2,,,,,,0,Instruct,User,-,"Press Enter when you are readty to begin",,Instruct11,1077,,,-1,-1,,,,1
w10181374_LC,u68vecfjwr,"Mediated JOLs",1,108,2024-11-05T04:43:04+00:00,2.7052140235901,3,versionB_stim.csv,ReadVersion.csv,Read,Read2,PEANUT,BUTTER,BUFFER1,Buffer,58,57,Study,User,-,,Study/JOL,BUFFER2,2556,,,-1,-1,,,,1
w10181374_LC,u68vecfjwr,"Mediated JOLs",1,109,2024-11-05T04:43:05+00:00,1.44251704216,3,versionB_stim.csv,ReadVersion.csv,Read,Read2,NOODLE,STRING,BUFFER4,Buffer,52,53,Study,User,-,,Study/JOL,BUFFER2,1293,,,-1,-1,,,,1
w10181374_LC,u68vecfjwr,"Mediated JOLs",1,110,2024-11-05T04:43:07+00:00,1.2700769901276,3,versionB_stim.csv,ReadVersion.csv,Read,Read2,ICE,FROZEN,BUFFER4,Buffer,54,54,Study,User,-,,Study/JOL,BUFFER2,1120,,,-1,-1,,,,1
w10181374_LC,u68vecfjwr,"Mediated JOLs",1,111,2024-11-05T04:43:08+00:00,1.3300290107727,3,versionB_stim.csv,ReadVersion.csv,Read,Read2,PITCHER,CATCHER,BUFFER1,Buffer,57,59,Study,User,-,,Study/JOL,BUFFER2,1194,,,-1,-1,,,,1
w10181374_LC,u68vecfjwr,"Mediated JOLs",1,112,2024-11-05T04:43:09+00:00,1.4940979480743,3,versionB_stim.csv,ReadVersion.csv,Read,Read2,CAMP,ADVENTURE,BUFFER4,Buffer,55,56,Study,User,-,,Study/JOL,BUFFER2,1350,,,-1,-1,,,,1
w10181374_LC,u68vecfjwr,"Mediated JOLs",1,113,2024-11-05T04:43:11+00:00,1.2265310287476,3,versionB_stim.csv,ReadVersion.csv,Read,Read2,CRACKLE,ELECTION,Study1,U,94,78,Study,User,-,,Study/JOL,"Study Phase2",1080,,,-1,-1,,,,1
w10181374_LC,u68vecfjwr,"Mediated JOLs",1,114,2024-11-05T04:43:12+00:00,1.2624080181122,3,versionB_stim.csv,ReadVersion.csv,Read,Read2,HARD,BALL,Study1,M,75,77,Study,User,-,,Study/JOL,"Study Phase2",1113,,,-1,-1,,,,1
w10181374_LC,u68vecfjwr,"Mediated JOLs",1,115,2024-11-05T04:43:13+00:00,1.307060956955,3,versionB_stim.csv,ReadVersion.csv,Read,Read2,SIP,DRINK,Study1,F,87,72,Study,User,-,,Study/JOL,"Study Phase2",1160,,,-1,-1,,,,1
w10181374_LC,u68vecfjwr,"Mediated JOLs",1,116,2024-11-05T04:43:15+00:00,1.3527810573578,3,versionB_stim.csv,ReadVersion.csv,Read,Read2,LITTER,TRASH,Study1,F,76,98,Study,User,-,,Study/JOL,"Study Phase2",1187,,,-1,-1,,,,1
w10181374_LC,u68vecfjwr,"Mediated JOLs",1,117,2024-11-05T04:43:16+00:00,1.1451969146729,3,versionB_stim.csv,ReadVersion.csv,Read,Read2,SOON,BELT,Study1,U,101,79,Study,User,-,,Study/JOL,"Study Phase2",993,,,-1,-1,,,,1
w10181374_LC,u68vecfjwr,"Mediated JOLs",1,118,2024-11-05T04:43:17+00:00,1.0835909843445,3,versionB_stim.csv,ReadVersion.csv,Read,Read2,WEDDING,HAND,Study1,M,72,88,Study,User,-,,Study/JOL,"Study Phase2",936,,,-1,-1,,,,1
w10181374_LC,u68vecfjwr,"Mediated JOLs",1,119,2024-11-05T04:43:18+00:00,0.99657011032104,3,versionB_stim.csv,ReadVersion.csv,Read,Read2,WAGE,MONEY,Study1,F,77,105,Study,User,-,,Study/JOL,"Study Phase2",844,,,-1,-1,,,,1
w10181374_LC,u68vecfjwr,"Mediated JOLs",1,120,2024-11-05T04:43:19+00:00,1.2077958583832,3,versionB_stim.csv,ReadVersion.csv,Read,Read2,BEACH,SQUARE,Study1,M,62,63,Study,User,-,,Study/JOL,"Study Phase2",1053,,,-1,-1,,,,1
w10181374_LC,u68vecfjwr,"Mediated JOLs",1,121,2024-11-05T04:43:20+00:00,1.1188859939575,3,versionB_stim.csv,ReadVersion.csv,Read,Read2,FUZZY,BANG,Study1,U,105,101,Study,User,-,,Study/JOL,"Study Phase2",971,,,-1,-1,,,,1
w10181374_LC,u68vecfjwr,"Mediated JOLs",1,122,2024-11-05T04:43:21+00:00,1.0025269985199,3,versionB_stim.csv,ReadVersion.csv,Read,Read2,MEAT,KEYS,Study1,U,96,68,Study,User,-,,Study/JOL,"Study Phase2",853,,,-1,-1,,,,1
w10181374_LC,u68vecfjwr,"Mediated JOLs",1,123,2024-11-05T04:43:22+00:00,1.033224105835,3,versionB_stim.csv,ReadVersion.csv,Read,Read2,TREE,PANCAKES,Study1,M,66,80,Study,User,-,,Study/JOL,"Study Phase2",885,,,-1,-1,,,,1
w10181374_LC,u68vecfjwr,"Mediated JOLs",1,124,2024-11-05T04:43:23+00:00,1.0980529785156,3,versionB_stim.csv,ReadVersion.csv,Read,Read2,WORD,SENTENCE,Study1,F,82,62,Study,User,-,,Study/JOL,"Study Phase2",952,,,-1,-1,,,,1
w10181374_LC,u68vecfjwr,"Mediated JOLs",1,125,2024-11-05T04:43:24+00:00,1.119481086731,3,versionB_stim.csv,ReadVersion.csv,Read,Read2,STRETCH,CLOTH,Study1,U,92,106,Study,User,-,,Study/JOL,"Study Phase2",981,,,-1,-1,,,,1
w10181374_LC,u68vecfjwr,"Mediated JOLs",1,126,2024-11-05T04:43:25+00:00,1.0868618488312,3,versionB_stim.csv,ReadVersion.csv,Read,Read2,MIRROR,MAROON,Study1,U,91,73,Study,User,-,,Study/JOL,"Study Phase2",939,,,-1,-1,,,,1
w10181374_LC,u68vecfjwr,"Mediated JOLs",1,127,2024-11-05T04:43:27+00:00,1.1809270381927,3,versionB_stim.csv,ReadVersion.csv,Read,Read2,CRY,BEER,Study1,M,71,75,Study,User,-,,Study/JOL,"Study Phase2",1031,,,-1,-1,,,,1
w10181374_LC,u68vecfjwr,"Mediated JOLs",1,128,2024-11-05T04:43:28+00:00,1.1286180019379,3,versionB_stim.csv,ReadVersion.csv,Read,Read2,GIVE,STEAK,Study1,U,93,103,Study,User,-,,Study/JOL,"Study Phase2",968,,,-1,-1,,,,1
w10181374_LC,u68vecfjwr,"Mediated JOLs",1,129,2024-11-05T04:43:29+00:00,1.1404449939728,3,versionB_stim.csv,ReadVersion.csv,Read,Read2,HYGIENE,CLEAN,Study1,F,83,84,Study,User,-,,Study/JOL,"Study Phase2",977,,,-1,-1,,,,1
w10181374_LC,u68vecfjwr,"Mediated JOLs",1,130,2024-11-05T04:43:30+00:00,1.1340129375458,3,versionB_stim.csv,ReadVersion.csv,Read,Read2,HORSE,TIRE,Study1,M,69,70,Study,User,-,,Study/JOL,"Study Phase2",988,,,-1,-1,,,,1
w10181374_LC,u68vecfjwr,"Mediated JOLs",1,131,2024-11-05T04:43:31+00:00,0.85898113250732,3,versionB_stim.csv,ReadVersion.csv,Read,Read2,CAKE,HAND,Study1,U,104,81,Study,User,-,,Study/JOL,"Study Phase2",710,,,-1,-1,,,,1
w10181374_LC,u68vecfjwr,"Mediated JOLs",1,132,2024-11-05T04:43:33+00:00,1.8319029808044,3,versionB_stim.csv,ReadVersion.csv,Read,Read2,TUNA,FISH,Study1,F,90,74,Study,User,-,,Study/JOL,"Study Phase2",1683,,,-1,-1,,,,1
w10181374_LC,u68vecfjwr,"Mediated JOLs",1,133,2024-11-05T04:43:34+00:00,1.6805551052094,3,versionB_stim.csv,ReadVersion.csv,Read,Read2,ROOT,PLANT,Study1,F,80,102,Study,User,-,,Study/JOL,"Study Phase2",1522,,,-1,-1,,,,1
w10181374_LC,u68vecfjwr,"Mediated JOLs",1,134,2024-11-05T04:43:36+00:00,1.3266289234161,3,versionB_stim.csv,ReadVersion.csv,Read,Read2,KEYS,ROD,Study1,U,100,87,Study,User,-,,Study/JOL,"Study Phase2",1186,,,-1,-1,,,,1
w10181374_LC,u68vecfjwr,"Mediated JOLs",1,135,2024-11-05T04:43:37+00:00,1.315908908844,3,versionB_stim.csv,ReadVersion.csv,Read,Read2,LION,FLAG,Study1,M,61,89,Study,User,-,,Study/JOL,"Study Phase2",1180,,,-1,-1,,,,1
w10181374_LC,u68vecfjwr,"Mediated JOLs",1,136,2024-11-05T04:43:38+00:00,1.3197469711304,3,versionB_stim.csv,ReadVersion.csv,Read,Read2,DAY,BLACK,Study1,M,73,86,Study,User,-,,Study/JOL,"Study Phase2",1176,,,-1,-1,,,,1
w10181374_LC,u68vecfjwr,"Mediated JOLs",1,137,2024-11-05T04:43:40+00:00,1.2169930934906,3,versionB_stim.csv,ReadVersion.csv,Read,Read2,SWAN,BIRD,Study1,F,81,90,Study,User,-,,Study/JOL,"Study Phase2",1072,,,-1,-1,,,,1
w10181374_LC,u68vecfjwr,"Mediated JOLs",1,138,2024-11-05T04:43:41+00:00,1.2512910366058,3,versionB_stim.csv,ReadVersion.csv,Read,Read2,AFFECTION,LOVE,Study1,F,86,100,Study,User,-,,Study/JOL,"Study Phase2",1103,,,-1,-1,,,,1
w10181374_LC,u68vecfjwr,"Mediated JOLs",1,139,2024-11-05T04:43:42+00:00,1.1245739459991,3,versionB_stim.csv,ReadVersion.csv,Read,Read2,CEILING,RUG,Study1,M,70,99,Study,User,-,,Study/JOL,"Study Phase2",980,,,-1,-1,,,,1
w10181374_LC,u68vecfjwr,"Mediated JOLs",1,140,2024-11-05T04:43:43+00:00,1.1069130897522,3,versionB_stim.csv,ReadVersion.csv,Read,Read2,ROUGH,WORM,Study1,M,65,67,Study,User,-,,Study/JOL,"Study Phase2",963,,,-1,-1,,,,1
w10181374_LC,u68vecfjwr,"Mediated JOLs",1,141,2024-11-05T04:43:44+00:00,1.1013088226318,3,versionB_stim.csv,ReadVersion.csv,Read,Read2,VEHICLE,CHARM,Study1,U,95,91,Study,User,-,,Study/JOL,"Study Phase2",952,,,-1,-1,,,,1
w10181374_LC,u68vecfjwr,"Mediated JOLs",1,142,2024-11-05T04:43:45+00:00,1.017804145813,3,versionB_stim.csv,ReadVersion.csv,Read,Read2,SIGN,TICK,Study1,U,102,69,Study,User,-,,Study/JOL,"Study Phase2",872,,,-1,-1,,,,1
w10181374_LC,u68vecfjwr,"Mediated JOLs",1,143,2024-11-05T04:43:47+00:00,2.0923368930817,3,versionB_stim.csv,ReadVersion.csv,Read,Read2,TOOTH,COMB,Study1,M,74,85,Study,User,-,,Study/JOL,"Study Phase2",1943,,,-1,-1,,,,1
w10181374_LC,u68vecfjwr,"Mediated JOLs",1,144,2024-11-05T04:43:49+00:00,1.3255040645599,3,versionB_stim.csv,ReadVersion.csv,Read,Read2,SHELL,SHAKE,Study1,U,98,66,Study,User,-,,Study/JOL,"Study Phase2",1179,,,-1,-1,,,,1
w10181374_LC,u68vecfjwr,"Mediated JOLs",1,145,2024-11-05T04:43:50+00:00,1.2398540973663,3,versionB_stim.csv,ReadVersion.csv,Read,Read2,TEMPERATURE,MORNING,Study1,U,103,96,Study,User,-,,Study/JOL,"Study Phase2",1097,,,-1,-1,,,,1
w10181374_LC,u68vecfjwr,"Mediated JOLs",1,146,2024-11-05T04:43:51+00:00,1.1584320068359,3,versionB_stim.csv,ReadVersion.csv,Read,Read2,ORCHID,FLOWER,Study1,F,89,76,Study,User,-,,Study/JOL,"Study Phase2",1014,,,-1,-1,,,,1
w10181374_LC,u68vecfjwr,"Mediated JOLs",1,147,2024-11-05T04:43:52+00:00,1.009192943573,3,versionB_stim.csv,ReadVersion.csv,Read,Read2,LISTEN,FICTION,Study1,U,99,95,Study,User,-,,Study/JOL,"Study Phase2",868,,,-1,-1,,,,1
w10181374_LC,u68vecfjwr,"Mediated JOLs",1,148,2024-11-05T04:43:53+00:00,1.0546128749847,3,versionB_stim.csv,ReadVersion.csv,Read,Read2,CREDIT,CARD,Study1,F,88,92,Study,User,-,,Study/JOL,"Study Phase2",907,,,-1,-1,,,,1
w10181374_LC,u68vecfjwr,"Mediated JOLs",1,149,2024-11-05T04:43:54+00:00,0.97651314735413,3,versionB_stim.csv,ReadVersion.csv,Read,Read2,WAR,LOUD,Study1,M,63,93,Study,User,-,,Study/JOL,"Study Phase2",829,,,-1,-1,,,,1
w10181374_LC,u68vecfjwr,"Mediated JOLs",1,150,2024-11-05T04:43:55+00:00,1.1010539531708,3,versionB_stim.csv,ReadVersion.csv,Read,Read2,MULE,DONKEY,Study1,F,79,82,Study,User,-,,Study/JOL,"Study Phase2",928,,,-1,-1,,,,1
w10181374_LC,u68vecfjwr,"Mediated JOLs",1,151,2024-11-05T04:43:56+00:00,1.0271768569946,3,versionB_stim.csv,ReadVersion.csv,Read,Read2,BAT,JUMP,Study1,M,67,104,Study,User,-,,Study/JOL,"Study Phase2",877,,,-1,-1,,,,1
w10181374_LC,u68vecfjwr,"Mediated JOLs",1,152,2024-11-05T04:43:57+00:00,0.94953322410583,3,versionB_stim.csv,ReadVersion.csv,Read,Read2,SCALP,HEAD,Study1,F,78,97,Study,User,-,,Study/JOL,"Study Phase2",803,,,-1,-1,,,,1
w10181374_LC,u68vecfjwr,"Mediated JOLs",1,153,2024-11-05T04:43:58+00:00,1.0425570011139,3,versionB_stim.csv,ReadVersion.csv,Read,Read2,MAZE,PHONE,Study1,U,97,71,Study,User,-,,Study/JOL,"Study Phase2",900,,,-1,-1,,,,1
w10181374_LC,u68vecfjwr,"Mediated JOLs",1,154,2024-11-05T04:43:59+00:00,1.2632169723511,3,versionB_stim.csv,ReadVersion.csv,Read,Read2,BIRTHDAY,APPLE,Study1,M,64,83,Study,User,-,,Study/JOL,"Study Phase2",1116,,,-1,-1,,,,1
w10181374_LC,u68vecfjwr,"Mediated JOLs",1,155,2024-11-05T04:44:00+00:00,1.043329000473,3,versionB_stim.csv,ReadVersion.csv,Read,Read2,NAP,SLEEP,Study1,F,84,64,Study,User,-,,Study/JOL,"Study Phase2",906,,,-1,-1,,,,1
w10181374_LC,u68vecfjwr,"Mediated JOLs",1,156,2024-11-05T04:44:01+00:00,0.90500593185425,3,versionB_stim.csv,ReadVersion.csv,Read,Read2,MULE,DONKEY,Study1,F,85,65,Study,User,-,,Study/JOL,"Study Phase2",754,,,-1,-1,,,,1
w10181374_LC,u68vecfjwr,"Mediated JOLs",1,157,2024-11-05T04:44:02+00:00,0.99197602272034,3,versionB_stim.csv,ReadVersion.csv,Read,Read2,CIRCLE,FUN,Study1,M,68,94,Study,User,-,,Study/JOL,"Study Phase2",846,,,-1,-1,,,,1
w10181374_LC,u68vecfjwr,"Mediated JOLs",1,158,2024-11-05T04:44:03+00:00,0.94153785705566,3,versionB_stim.csv,ReadVersion.csv,Read,Read2,TREES,GREEN,BUFFER1,Buffer,56,60,Study,User,-,,Study/JOL,BUFFER2,791,,,-1,-1,,,,1
w10181374_LC,u68vecfjwr,"Mediated JOLs",1,159,2024-11-05T04:44:04+00:00,0.93511199951172,3,versionB_stim.csv,ReadVersion.csv,Read,Read2,SHERRIF,POLICE,BUFFER2,Buffer,107,110,Study,User,-,,Study/JOL,BUFFER2,786,,,-1,-1,,,,1
w10181374_LC,u68vecfjwr,"Mediated JOLs",1,160,2024-11-05T04:44:05+00:00,0.87351512908936,3,versionB_stim.csv,ReadVersion.csv,Read,Read2,SPACE,JAM,BUFFER1,Buffer,60,61,Study,User,-,,Study/JOL,BUFFER2,724,,,-1,-1,,,,1
w10181374_LC,u68vecfjwr,"Mediated JOLs",1,161,2024-11-05T04:44:06+00:00,0.92672395706177,3,versionB_stim.csv,ReadVersion.csv,Read,Read2,SHRIMP,FISH,BUFFER4,Buffer,53,52,Study,User,-,,Study/JOL,BUFFER2,782,,,-1,-1,,,,1
w10181374_LC,u68vecfjwr,"Mediated JOLs",1,162,2024-11-05T04:44:07+00:00,0.80158805847168,3,versionB_stim.csv,ReadVersion.csv,Read,Read2,THING,STUFF,BUFFER2,Buffer,110,108,Study,User,-,,Study/JOL,BUFFER2,655,,,-1,-1,,,,1
w10181374_LC,u68vecfjwr,"Mediated JOLs",1,163,2024-11-05T04:44:09+00:00,2.539785861969,3,versionB_stim.csv,ReadVersion.csv,Read,Read2,,,,,,0,Instruct,User,-,"You have completed this section. Please press Enter.",Filler_Instruction,Instruct2,2390,,,-1,-1,,,,1
w10181374_LC,u68vecfjwr,"Mediated JOLs",1,164,2024-11-05T04:46:10+00:00,120.33076810837,3,versionB_stim.csv,ReadVersion.csv,Read,Read2,,,,,,0,FreeRecall,120,120,"Please list the 50 US states in alphabetical order. The task will automatically advance to the next screen after two minutes.",,Filler1,120003,"Alabama Alaska Arizona Arkansas California Colorado Conneticut Deleware Flordia Georgia Hawaii Idaho Illinios Indianna Iowa Kansas Kentucky Louisianna Maine Maryland Massachusetts Michigan Minnesota Mississippi Missouri Montana Nebraska Nevada New Hampshire New Jersey New Mexico New York North Carolina North Dakota Ohio Oklahoma Oregan Pennsylvania Rhode Islands South Carolina South Dakota Ten ",0,2229,119957,0,0,,1
w10181374_LC,u68vecfjwr,"Mediated JOLs",1,165,2024-11-05T04:46:22+00:00,12.551743984222,3,versionB_stim.csv,ReadVersion.csv,Read,Read2,,,,,,0,Instruct,-,10,"You will now be presented with the first word from each of the previously studied item pairs. Please type the missing word. If you do not know the word, you may guess or press Enter to skip forward to the next pair.",,Instruct3,12364,,,-1,-1,,,,1
w10181374_LC,u68vecfjwr,"Mediated JOLs",1,166,2024-11-05T04:46:38+00:00,15.868302106857,3,versionB_stim.csv,ReadVersion.csv,Read,Read2,CAKE,HAND,Study1,U,104,81,Test,User,-,,Recall,Recall2,15720,hand,100,14278,14768,1,1,,1
w10181374_LC,u68vecfjwr,"Mediated JOLs",1,167,2024-11-05T04:46:41+00:00,2.6423399448395,3,versionB_stim.csv,ReadVersion.csv,Read,Read2,ORCHID,FLOWER,Study1,F,89,76,Test,User,-,,Recall,Recall2,2505,flower,100,1614,2353,1,1,,1
w10181374_LC,u68vecfjwr,"Mediated JOLs",1,168,2024-11-05T04:46:49+00:00,8.5905468463898,3,versionB_stim.csv,ReadVersion.csv,Read,Read2,CIRCLE,FUN,Study1,M,68,94,Test,User,-,,Recall,Recall2,8442,fun,100,6960,8170,1,1,,1
w10181374_LC,u68vecfjwr,"Mediated JOLs",1,169,2024-11-05T04:46:52+00:00,2.2968270778656,3,versionB_stim.csv,ReadVersion.csv,Read,Read2,LITTER,TRASH,Study1,F,76,98,Test,User,-,,Recall,Recall2,2159,cat,25,1777,2022,0,0,,1
w10181374_LC,u68vecfjwr,"Mediated JOLs",1,170,2024-11-05T04:47:06+00:00,14.322485923767,3,versionB_stim.csv,ReadVersion.csv,Read,Read2,ROOT,PLANT,Study1,F,80,102,Test,User,-,,Recall,Recall2,14174,plant,100,1299,14004,1,1,,1
w10181374_LC,u68vecfjwr,"Mediated JOLs",1,171,2024-11-05T04:47:14+00:00,7.8269050121307,3,versionB_stim.csv,ReadVersion.csv,Read,Read2,HARD,BALL,Study1,M,75,77,Test,User,-,,Recall,Recall2,7673,ball,100,6997,7478,1,1,,1
w10181374_LC,u68vecfjwr,"Mediated JOLs",1,172,2024-11-05T04:47:28+00:00,13.819180011749,3,versionB_stim.csv,ReadVersion.csv,Read,Read2,KEYS,ROD,Study1,U,100,87,Test,User,-,,Recall,Recall2,13661,car,33.333333333333,13275,13546,0,0,,1
w10181374_LC,u68vecfjwr,"Mediated JOLs",1,173,2024-11-05T04:47:42+00:00,14.730581998825,3,versionB_stim.csv,ReadVersion.csv,Read,Read2,TEMPERATURE,MORNING,Study1,U,103,96,Test,User,-,,Recall,Recall2,14565,mornin,92.307692307692,13662,14343,0,1,,1
w10181374_LC,u68vecfjwr,"Mediated JOLs",1,174,2024-11-05T04:47:49+00:00,6.3870391845703,3,versionB_stim.csv,ReadVersion.csv,Read,Read2,BIRTHDAY,APPLE,Study1,M,64,83,Test,User,-,,Recall,Recall2,6232,apple,100,5078,6097,1,1,,1
w10181374_LC,u68vecfjwr,"Mediated JOLs",1,175,2024-11-05T04:48:02+00:00,13.086445808411,3,versionB_stim.csv,ReadVersion.csv,Read,Read2,CRY,BEER,Study1,M,71,75,Test,User,-,,Recall,Recall2,12930,beer,100,11975,12807,1,1,,1
w10181374_LC,u68vecfjwr,"Mediated JOLs",1,176,2024-11-05T04:48:11+00:00,8.7036340236664,3,versionB_stim.csv,ReadVersion.csv,Read,Read2,CEILING,RUG,Study1,M,70,99,Test,User,-,,Recall,Recall2,8541,rug,100,8099,8366,1,1,,1
w10181374_LC,u68vecfjwr,"Mediated JOLs",1,177,2024-11-05T04:48:19+00:00,8.5077230930328,3,versionB_stim.csv,ReadVersion.csv,Read,Read2,MIRROR,MAROON,Study1,U,91,73,Test,User,-,,Recall,Recall2,8364,maroon,100,7062,8140,1,1,,1
w10181374_LC,u68vecfjwr,"Mediated JOLs",1,178,2024-11-05T04:48:29+00:00,9.6470890045166,3,versionB_stim.csv,ReadVersion.csv,Read,Read2,TOOTH,COMB,Study1,M,74,85,Test,User,-,,Recall,Recall2,9494,comb,100,8941,9334,1,1,,1
w10181374_LC,u68vecfjwr,"Mediated JOLs",1,179,2024-11-05T04:48:31+00:00,2.7336509227753,3,versionB_stim.csv,ReadVersion.csv,Read,Read2,GIVE,STEAK,Study1,U,93,103,Test,User,-,,Recall,Recall2,2591,recieve,16.666666666667,1285,2342,0,0,,1
w10181374_LC,u68vecfjwr,"Mediated JOLs",1,180,2024-11-05T04:48:40+00:00,8.7216439247131,3,versionB_stim.csv,ReadVersion.csv,Read,Read2,BAT,JUMP,Study1,M,67,104,Test,User,-,,Recall,Recall2,8576,jump,100,7316,8293,1,1,,1
w10181374_LC,u68vecfjwr,"Mediated JOLs",1,181,2024-11-05T04:48:44+00:00,3.9195330142975,3,versionB_stim.csv,ReadVersion.csv,Read,Read2,SCALP,HEAD,Study1,F,78,97,Test,User,-,,Recall,Recall2,3768,head,100,3230,3666,1,1,,1
w10181374_LC,u68vecfjwr,"Mediated JOLs",1,182,2024-11-05T04:49:08+00:00,24.425454139709,3,versionB_stim.csv,ReadVersion.csv,Read,Read2,TUNA,FISH,Study1,F,90,74,Test,User,-,,Recall,Recall2,24279,fish,100,23439,23908,1,1,,1
w10181374_LC,u68vecfjwr,"Mediated JOLs",1,183,2024-11-05T04:49:11+00:00,2.50838804245,3,versionB_stim.csv,ReadVersion.csv,Read,Read2,CRACKLE,ELECTION,Study1,U,94,78,Test,User,-,,Recall,Recall2,2366,pop,18.181818181818,1640,2037,0,0,,1
w10181374_LC,u68vecfjwr,"Mediated JOLs",1,184,2024-11-05T04:49:23+00:00,11.813467025757,3,versionB_stim.csv,ReadVersion.csv,Read,Read2,SOON,BELT,Study1,U,101,79,Test,User,-,,Recall,Recall2,11660,belt,100,10902,11465,1,1,,1
w10181374_LC,u68vecfjwr,"Mediated JOLs",1,185,2024-11-05T04:49:33+00:00,9.9489049911499,3,versionB_stim.csv,ReadVersion.csv,Read,Read2,SHELL,SHAKE,Study1,U,98,66,Test,User,-,,Recall,Recall2,9798,shake,100,6684,9673,1,1,,1
w10181374_LC,u68vecfjwr,"Mediated JOLs",1,186,2024-11-05T04:49:39+00:00,5.9925529956818,3,versionB_stim.csv,ReadVersion.csv,Read,Read2,NAP,SLEEP,Study1,F,84,64,Test,User,-,,Recall,Recall2,5839,sleep,100,5054,5607,1,1,,1
w10181374_LC,u68vecfjwr,"Mediated JOLs",1,187,2024-11-05T04:49:59+00:00,20.528291940689,3,versionB_stim.csv,ReadVersion.csv,Read,Read2,MAZE,PHONE,Study1,U,97,71,Test,User,-,,Recall,Recall2,20383,phone,100,19538,20205,1,1,,1
w10181374_LC,u68vecfjwr,"Mediated JOLs",1,188,2024-11-05T04:50:02+00:00,2.3892819881439,3,versionB_stim.csv,ReadVersion.csv,Read,Read2,WEDDING,HAND,Study1,M,72,88,Test,User,-,,Recall,Recall2,2221,cake,25,1064,2095,0,0,,1
w10181374_LC,u68vecfjwr,"Mediated JOLs",1,189,2024-11-05T04:50:04+00:00,1.8596580028534,3,versionB_stim.csv,ReadVersion.csv,Read,Read2,VEHICLE,CHARM,Study1,U,95,91,Test,User,-,,Recall,Recall2,1713,car,75,1272,1548,0,1,,1
w10181374_LC,u68vecfjwr,"Mediated JOLs",1,190,2024-11-05T04:51:09+00:00,65.423788070679,3,versionB_stim.csv,ReadVersion.csv,Read,Read2,WORD,SENTENCE,Study1,F,82,62,Test,User,-,,Recall,Recall2,65219,sentences,94.117647058824,62771,65034,0,1,,1
w10181374_LC,u68vecfjwr,"Mediated JOLs",1,191,2024-11-05T04:51:11+00:00,2.0241179466248,3,versionB_stim.csv,ReadVersion.csv,Read,Read2,LISTEN,FICTION,Study1,U,99,95,Test,User,-,,Recall,Recall2,1876,hear,0,1453,1775,0,0,,1
w10181374_LC,u68vecfjwr,"Mediated JOLs",1,192,2024-11-05T04:51:13+00:00,1.6223199367523,3,versionB_stim.csv,ReadVersion.csv,Read,Read2,HORSE,TIRE,Study1,M,69,70,Test,User,-,,Recall,Recall2,1454,tire,100,963,1305,1,1,,1
w10181374_LC,u68vecfjwr,"Mediated JOLs",1,193,2024-11-05T04:51:23+00:00,10.873764038086,3,versionB_stim.csv,ReadVersion.csv,Read,Read2,FUZZY,BANG,Study1,U,105,101,Test,User,-,,Recall,Recall2,10718,bang,100,9205,10430,1,1,,1
w10181374_LC,u68vecfjwr,"Mediated JOLs",1,194,2024-11-05T04:51:58+00:00,34.990256071091,3,versionB_stim.csv,ReadVersion.csv,Read,Read2,WAR,LOUD,Study1,M,63,93,Test,User,-,,Recall,Recall2,34734,loud,100,33964,34546,1,1,,1
w10181374_LC,u68vecfjwr,"Mediated JOLs",1,195,2024-11-05T04:52:00+00:00,1.7958168983459,3,versionB_stim.csv,ReadVersion.csv,Read,Read2,HYGIENE,CLEAN,Study1,F,83,84,Test,User,-,,Recall,Recall2,1635,clean,100,960,1414,1,1,,1
w10181374_LC,u68vecfjwr,"Mediated JOLs",1,196,2024-11-05T04:52:03+00:00,2.5882399082184,3,versionB_stim.csv,ReadVersion.csv,Read,Read2,MULE,DONKEY,Study1,F,85,65,Test,User,-,,Recall,Recall2,2409,donkey,100,1107,1951,1,1,,1
w10181374_LC,u68vecfjwr,"Mediated JOLs",1,197,2024-11-05T04:52:06+00:00,2.985374212265,3,versionB_stim.csv,ReadVersion.csv,Read,Read2,BEACH,SQUARE,Study1,M,62,63,Test,User,-,,Recall,Recall2,2838,square,100,1520,2707,1,1,,1
w10181374_LC,u68vecfjwr,"Mediated JOLs",1,198,2024-11-05T04:52:08+00:00,2.2251629829407,3,versionB_stim.csv,ReadVersion.csv,Read,Read2,SIP,DRINK,Study1,F,87,72,Test,User,-,,Recall,Recall2,2015,drink,100,923,1803,1,1,,1
w10181374_LC,u68vecfjwr,"Mediated JOLs",1,199,2024-11-05T04:52:57+00:00,49.378527879715,3,versionB_stim.csv,ReadVersion.csv,Read,Read2,STRETCH,CLOTH,Study1,U,92,106,Test,User,-,,Recall,Recall2,48858,clothes,83.333333333333,47789,48733,0,1,,1
w10181374_LC,u68vecfjwr,"Mediated JOLs",1,200,2024-11-05T04:53:01+00:00,4.0027570724487,3,versionB_stim.csv,ReadVersion.csv,Read,Read2,ROUGH,WORM,Study1,M,65,67,Test,User,-,,Recall,Recall2,3842,soft,25,1856,3708,0,0,,1
w10181374_LC,u68vecfjwr,"Mediated JOLs",1,201,2024-11-05T04:53:13+00:00,11.79194188118,3,versionB_stim.csv,ReadVersion.csv,Read,Read2,MEAT,KEYS,Study1,U,96,68,Test,User,-,,Recall,Recall2,11648,keys,100,11023,11503,1,1,,1
w10181374_LC,u68vecfjwr,"Mediated JOLs",1,202,2024-11-05T04:53:36+00:00,23.157966136932,3,versionB_stim.csv,ReadVersion.csv,Read,Read2,TREE,PANCAKES,Study1,M,66,80,Test,User,-,,Recall,Recall2,23003,green,15.384615384615,21517,22439,0,0,,1
w10181374_LC,u68vecfjwr,"Mediated JOLs",1,203,2024-11-05T04:53:39+00:00,2.3281478881836,3,versionB_stim.csv,ReadVersion.csv,Read,Read2,WAGE,MONEY,Study1,F,77,105,Test,User,-,,Recall,Recall2,2084,money,100,1135,1815,1,1,,1
w10181374_LC,u68vecfjwr,"Mediated JOLs",1,204,2024-11-05T04:53:41+00:00,2.5432341098785,3,versionB_stim.csv,ReadVersion.csv,Read,Read2,MULE,DONKEY,Study1,F,79,82,Test,User,-,,Recall,Recall2,2403,donkey,100,1002,2108,1,1,,1
w10181374_LC,u68vecfjwr,"Mediated JOLs",1,205,2024-11-05T04:53:43+00:00,1.7219429016113,3,versionB_stim.csv,ReadVersion.csv,Read,Read2,SWAN,BIRD,Study1,F,81,90,Test,User,-,,Recall,Recall2,1579,bird,100,925,1476,1,1,,1
w10181374_LC,u68vecfjwr,"Mediated JOLs",1,206,2024-11-05T04:53:46+00:00,3.1043410301208,3,versionB_stim.csv,ReadVersion.csv,Read,Read2,LION,FLAG,Study1,M,61,89,Test,User,-,,Recall,Recall2,2958,animal,20,2012,2726,0,0,,1
w10181374_LC,u68vecfjwr,"Mediated JOLs",1,207,2024-11-05T04:53:49+00:00,2.761214017868,3,versionB_stim.csv,ReadVersion.csv,Read,Read2,DAY,BLACK,Study1,M,73,86,Test,User,-,,Recall,Recall2,2615,black,100,1760,2380,1,1,,1
w10181374_LC,u68vecfjwr,"Mediated JOLs",1,208,2024-11-05T04:54:10+00:00,21.255264997482,3,versionB_stim.csv,ReadVersion.csv,Read,Read2,SIGN,TICK,Study1,U,102,69,Test,User,-,,Recall,Recall2,21109,clock,44.444444444444,20419,20919,0,0,,1
w10181374_LC,u68vecfjwr,"Mediated JOLs",1,209,2024-11-05T04:54:12+00:00,1.8105130195618,3,versionB_stim.csv,ReadVersion.csv,Read,Read2,CREDIT,CARD,Study1,F,88,92,Test,User,-,,Recall,Recall2,1657,card,100,1031,1500,1,1,,1
w10181374_LC,u68vecfjwr,"Mediated JOLs",1,210,2024-11-05T04:54:14+00:00,1.6303849220276,3,versionB_stim.csv,ReadVersion.csv,Read,Read2,AFFECTION,LOVE,Study1,F,86,100,Test,User,-,,Recall,Recall2,1485,love,100,937,1325,1,1,,1
w10181374_LC,u68vecfjwr,"Mediated JOLs",1,211,2024-11-05T04:54:15+00:00,1.9269061088562,3,versionB_stim.csv,ReadVersion.csv,Read,Read2,,,,,,0,Instruct,User,-,"You have completed this section. Please press Enter.",,Instruct7,1692,,,-1,-1,,,,1
w10181374_LC,u68vecfjwr,"Mediated JOLs",1,212,2024-11-05T04:54:18+00:00,2.9882879257202,3,versionB_stim.csv,ReadVersion.csv,Read,Read2,,,,,,0,Instruct,User,-,"The following screen will ask you a few questions abour your experience today. You must complete these questions to receive credit.",,Instruct8,2843,,,-1,-1,,,,1
