Username,ID,ExperimentName,Session,Trial,Date,TimeDif,"Condition Number","Stimuli File","Order File","Condition Description","Condition Notes",Stimuli*Cue,Stimuli*Answer,Stimuli*Shuffle,"Stimuli*Stimuli Notes",Stimuli*Value,Procedure*Item,"Procedure*Trial Type","Procedure*Max Time","Procedure*Min Time",Procedure*Text,"Procedure*Procedure Notes",Procedure*Shuffle,Response*RT,Response*Response,Response*Accuracy,Response*RTfirst,Response*RTlast,Response*strictAcc,Response*lenientAcc,Response*focus,Response*JOL,Response*Focus
6773f2c6f59707888206bdd1,6m6o5kx2dl,"Mediated JOLs",1,1,2025-10-20T20:47:27+00:00,15.307194948196,1,JAM_stim.csv,JAM_proc.csv,JAM,JAM,,,,,,0,Instruct,-,5,"In this section, you will be presented with a series of word pairs. We are interested in how related you perceive the words in each pair to be.",Initial_Instruct,Instruct1,14873,,,-1,-1,,,,,1
6773f2c6f59707888206bdd1,6m6o5kx2dl,"Mediated JOLs",1,2,2025-10-20T20:47:39+00:00,12.877176046371,1,JAM_stim.csv,JAM_proc.csv,JAM,JAM,,,,,,0,Instruct,-,5,"Specifically, you will be asked to rate how often the words in each pair are used together. Assume 100 college students from around the nation gave responses to each CUE (first) word. How many of these 100 students do you think would have given the RESPONSE (second) word?",,Instruct13,11852,,,-1,-1,,,,,1
6773f2c6f59707888206bdd1,6m6o5kx2dl,"Mediated JOLs",1,3,2025-10-20T20:47:49+00:00,9.9188199043274,1,JAM_stim.csv,JAM_proc.csv,JAM,JAM,,,,,,0,Instruct,-,5,"For example, if you are given the pair CAT - DOG, a rating of 0 indicates that DOG is not a commonly given response to the word CAT, while a score of 100 indicates that DOG would be a common response.",,Instruct14,9312,,,-1,-1,,,,,1
6773f2c6f59707888206bdd1,6m6o5kx2dl,"Mediated JOLs",1,4,2025-10-20T20:48:00+00:00,10.475232124329,1,JAM_stim.csv,JAM_proc.csv,JAM,JAM,,,,,,0,Instruct,-,5,"When making your ratings, it is criticial that you use the full range of the scale. You will be disqualified for only giving ratings of 0 or 100! After making your rating, you will press Enter to advance to the next pair.",,Instruct15,9846,,,-1,-1,,,,,1
6773f2c6f59707888206bdd1,6m6o5kx2dl,"Mediated JOLs",1,5,2025-10-20T20:48:04+00:00,4.4287719726562,1,JAM_stim.csv,JAM_proc.csv,JAM,JAM,,,,,,0,Instruct,User,-,"Before starting the study, you will complete a short practice session to get familiar with the judgment task. Press Enter when you are ready to begin.",,Instruct16,3733,,,-1,-1,,,,,1
6773f2c6f59707888206bdd1,6m6o5kx2dl,"Mediated JOLs",1,6,2025-10-20T20:48:43+00:00,38.977316856384,1,JAM_stim.csv,JAM_proc.csv,JAM,JAM,SCARE,FRIGHT,Practice,Practice,4,6,JAM,User,-,"How many inidividuals out of 100 would provide the second word in this pair as their immediate response to the first word? |Type your response on a scale from 0-100 and then press Enter.",Study/JOL,Practice,37603,,,35441,35599,,,,60,1
6773f2c6f59707888206bdd1,6m6o5kx2dl,"Mediated JOLs",1,7,2025-10-20T20:49:12+00:00,28.676316022873,1,JAM_stim.csv,JAM_proc.csv,JAM,JAM,PEANUT,BUTTER,Practice,Practice,3,3,JAM,User,-,"How many inidividuals out of 100 would provide the second word in this pair as their immediate response to the first word? |Type your response on a scale from 0-100 and then press Enter.",Study/JOL,Practice,27941,,,22269,26453,,,,90,1
6773f2c6f59707888206bdd1,6m6o5kx2dl,"Mediated JOLs",1,8,2025-10-20T20:49:24+00:00,12.418534994125,1,JAM_stim.csv,JAM_proc.csv,JAM,JAM,PITCHER,CATCHER,Practice,Practice,2,5,JAM,User,-,"How many inidividuals out of 100 would provide the second word in this pair as their immediate response to the first word? |Type your response on a scale from 0-100 and then press Enter.",Study/JOL,Practice,11564,,,9465,9845,,,,50,1
6773f2c6f59707888206bdd1,6m6o5kx2dl,"Mediated JOLs",1,9,2025-10-20T20:49:45+00:00,20.768470048904,1,JAM_stim.csv,JAM_proc.csv,JAM,JAM,TREES,GREEN,Practice,Practice,1,4,JAM,User,-,"How many inidividuals out of 100 would provide the second word in this pair as their immediate response to the first word? |Type your response on a scale from 0-100 and then press Enter.",Study/JOL,Practice,19925,,,14491,18364,,,,80,1
6773f2c6f59707888206bdd1,6m6o5kx2dl,"Mediated JOLs",1,10,2025-10-20T20:50:10+00:00,24.915338993073,1,JAM_stim.csv,JAM_proc.csv,JAM,JAM,SPACE,JAM,Practice,Practice,5,2,JAM,User,-,"How many inidividuals out of 100 would provide the second word in this pair as their immediate response to the first word? |Type your response on a scale from 0-100 and then press Enter.",Study/JOL,Practice,24362,,,14779,14873,,,,10,1
6773f2c6f59707888206bdd1,6m6o5kx2dl,"Mediated JOLs",1,11,2025-10-20T20:59:36+00:00,565.59022212029,1,JAM_stim.csv,JAM_proc.csv,JAM,JAM,,,,,,0,Instruct,User,-,"You will now begin the study. Press Enter when you are ready to begin.",,Instruct_Full_task,564227,,,-1,-1,,,,,0.848
6773f2c6f59707888206bdd1,6m6o5kx2dl,"Mediated JOLs",1,12,2025-10-20T20:59:43+00:00,7.6410639286041,1,JAM_stim.csv,JAM_proc.csv,JAM,JAM,STRETCH,CLOTH,Study1,U,37,90,JAM,User,-,"How many inidividuals out of 100 would provide the second word in this pair as their immediate response to the first word? |Type your response on a scale from 0-100 and then press Enter.",Study/JOL,JAM_Rating,6828,,,4855,5412,,,,40,1
6773f2c6f59707888206bdd1,6m6o5kx2dl,"Mediated JOLs",1,13,2025-10-20T20:59:54+00:00,10.395155906677,1,JAM_stim.csv,JAM_proc.csv,JAM,JAM,SOAP,DRINK,Study1,M,67,73,JAM,User,-,"How many inidividuals out of 100 would provide the second word in this pair as their immediate response to the first word? |Type your response on a scale from 0-100 and then press Enter.",Study/JOL,JAM_Rating,9909,,,6855,8119,,,,0,1
6773f2c6f59707888206bdd1,6m6o5kx2dl,"Mediated JOLs",1,14,2025-10-20T21:00:02+00:00,8.4859020709991,1,JAM_stim.csv,JAM_proc.csv,JAM,JAM,WINDOW,KNOB,Study1,M,74,60,JAM,User,-,"How many inidividuals out of 100 would provide the second word in this pair as their immediate response to the first word? |Type your response on a scale from 0-100 and then press Enter.",Study/JOL,JAM_Rating,7979,,,5639,6538,,,,10,1
6773f2c6f59707888206bdd1,6m6o5kx2dl,"Mediated JOLs",1,15,2025-10-20T21:00:13+00:00,10.547813892365,1,JAM_stim.csv,JAM_proc.csv,JAM,JAM,LEASE,TOIL,Study1,U,101,62,JAM,User,-,"How many inidividuals out of 100 would provide the second word in this pair as their immediate response to the first word? |Type your response on a scale from 0-100 and then press Enter.",Study/JOL,JAM_Rating,10093,,,7009,8527,,,,1,1
6773f2c6f59707888206bdd1,6m6o5kx2dl,"Mediated JOLs",1,16,2025-10-20T21:13:15+00:00,782.15622615814,1,JAM_stim.csv,JAM_proc.csv,JAM,JAM,SOON,BELT,Study1,U,46,93,JAM,User,-,"How many inidividuals out of 100 would provide the second word in this pair as their immediate response to the first word? |Type your response on a scale from 0-100 and then press Enter.",Study/JOL,JAM_Rating,781145,,,777016,779462,,,,5,0.836
6773f2c6f59707888206bdd1,6m6o5kx2dl,"Mediated JOLs",1,17,2025-10-20T21:13:23+00:00,8.2293050289154,1,JAM_stim.csv,JAM_proc.csv,JAM,JAM,TREE,SYRUP,Study1,M,11,25,JAM,User,-,"How many inidividuals out of 100 would provide the second word in this pair as their immediate response to the first word? |Type your response on a scale from 0-100 and then press Enter.",Study/JOL,JAM_Rating,7490,,,5279,5414,,,,10,1
6773f2c6f59707888206bdd1,6m6o5kx2dl,"Mediated JOLs",1,18,2025-10-20T21:13:29+00:00,6.2781670093536,1,JAM_stim.csv,JAM_proc.csv,JAM,JAM,SUMMER,SNOW,Study1,M,61,87,JAM,User,-,"How many inidividuals out of 100 would provide the second word in this pair as their immediate response to the first word? |Type your response on a scale from 0-100 and then press Enter.",Study/JOL,JAM_Rating,5789,,,4230,4230,,,,5,1
6773f2c6f59707888206bdd1,6m6o5kx2dl,"Mediated JOLs",1,19,2025-10-20T21:13:41+00:00,11.236081838608,1,JAM_stim.csv,JAM_proc.csv,JAM,JAM,CIRCLE,DANCE,Study1,M,13,32,JAM,User,-,"How many inidividuals out of 100 would provide the second word in this pair as their immediate response to the first word? |Type your response on a scale from 0-100 and then press Enter.",Study/JOL,JAM_Rating,10776,,,8816,9207,,,,15,0.962
6773f2c6f59707888206bdd1,6m6o5kx2dl,"Mediated JOLs",1,20,2025-10-20T21:13:53+00:00,12.799472093582,1,JAM_stim.csv,JAM_proc.csv,JAM,JAM,KING,VASE,Study1,U,91,8,JAM,User,-,"How many inidividuals out of 100 would provide the second word in this pair as their immediate response to the first word? |Type your response on a scale from 0-100 and then press Enter.",Study/JOL,JAM_Rating,12309,,,9801,10667,,,,0,1
6773f2c6f59707888206bdd1,6m6o5kx2dl,"Mediated JOLs",1,21,2025-10-20T21:14:05+00:00,11.833379983902,1,JAM_stim.csv,JAM_proc.csv,JAM,JAM,PUSH,CLUTTER,Study1,U,96,94,JAM,User,-,"How many inidividuals out of 100 would provide the second word in this pair as their immediate response to the first word? |Type your response on a scale from 0-100 and then press Enter.",Study/JOL,JAM_Rating,11408,,,8900,9829,,,,15,1
6773f2c6f59707888206bdd1,6m6o5kx2dl,"Mediated JOLs",1,22,2025-10-20T21:14:12+00:00,7.2447350025177,1,JAM_stim.csv,JAM_proc.csv,JAM,JAM,WASP,BUG,Study1,F,134,26,JAM,User,-,"How many inidividuals out of 100 would provide the second word in this pair as their immediate response to the first word? |Type your response on a scale from 0-100 and then press Enter.",Study/JOL,JAM_Rating,6714,,,4853,4948,,,,80,1
6773f2c6f59707888206bdd1,6m6o5kx2dl,"Mediated JOLs",1,23,2025-10-20T21:14:19+00:00,6.9485368728638,1,JAM_stim.csv,JAM_proc.csv,JAM,JAM,NURSE,LAWYER,Study1,M,66,28,JAM,User,-,"How many inidividuals out of 100 would provide the second word in this pair as their immediate response to the first word? |Type your response on a scale from 0-100 and then press Enter.",Study/JOL,JAM_Rating,6421,,,3439,3551,,,,10,1
6773f2c6f59707888206bdd1,6m6o5kx2dl,"Mediated JOLs",1,24,2025-10-20T21:14:28+00:00,8.5294840335846,1,JAM_stim.csv,JAM_proc.csv,JAM,JAM,LEAGUE,BASEBALL,Study1,F,129,78,JAM,User,-,"How many inidividuals out of 100 would provide the second word in this pair as their immediate response to the first word? |Type your response on a scale from 0-100 and then press Enter.",Study/JOL,JAM_Rating,7946,,,5812,6076,,,,15,1
6773f2c6f59707888206bdd1,6m6o5kx2dl,"Mediated JOLs",1,25,2025-10-20T21:14:34+00:00,5.7581751346588,1,JAM_stim.csv,JAM_proc.csv,JAM,JAM,BOTH,OUNCE,Study1,U,102,44,JAM,User,-,"How many inidividuals out of 100 would provide the second word in this pair as their immediate response to the first word? |Type your response on a scale from 0-100 and then press Enter.",Study/JOL,JAM_Rating,5258,,,4899,4900,,,,0,1
6773f2c6f59707888206bdd1,6m6o5kx2dl,"Mediated JOLs",1,26,2025-10-20T21:14:45+00:00,11.067137002945,1,JAM_stim.csv,JAM_proc.csv,JAM,JAM,SICK,HIDE,Study1,U,100,81,JAM,User,-,"How many inidividuals out of 100 would provide the second word in this pair as their immediate response to the first word? |Type your response on a scale from 0-100 and then press Enter.",Study/JOL,JAM_Rating,10505,,,8684,10147,,,,0,1
6773f2c6f59707888206bdd1,6m6o5kx2dl,"Mediated JOLs",1,27,2025-10-20T21:15:07+00:00,22.191232919693,1,JAM_stim.csv,JAM_proc.csv,JAM,JAM,VEHICLE,CHARM,Study1,U,40,71,JAM,User,-,"How many inidividuals out of 100 would provide the second word in this pair as their immediate response to the first word? |Type your response on a scale from 0-100 and then press Enter.",Study/JOL,JAM_Rating,21653,,,21238,21238,,,,0,0.906
6773f2c6f59707888206bdd1,6m6o5kx2dl,"Mediated JOLs",1,28,2025-10-20T21:15:11+00:00,3.7151670455933,1,JAM_stim.csv,JAM_proc.csv,JAM,JAM,MULE,DONKEY,Study1,F,109,31,JAM,User,-,"How many inidividuals out of 100 would provide the second word in this pair as their immediate response to the first word? |Type your response on a scale from 0-100 and then press Enter.",Study/JOL,JAM_Rating,3117,,,2408,2554,,,,10,1
6773f2c6f59707888206bdd1,6m6o5kx2dl,"Mediated JOLs",1,29,2025-10-20T21:15:14+00:00,3.8349568843842,1,JAM_stim.csv,JAM_proc.csv,JAM,JAM,DAY,DARK,Study1,M,18,65,JAM,User,-,"How many inidividuals out of 100 would provide the second word in this pair as their immediate response to the first word? |Type your response on a scale from 0-100 and then press Enter.",Study/JOL,JAM_Rating,3322,,,2546,2699,,,,50,1
6773f2c6f59707888206bdd1,6m6o5kx2dl,"Mediated JOLs",1,30,2025-10-20T21:15:18+00:00,4.0132691860199,1,JAM_stim.csv,JAM_proc.csv,JAM,JAM,DEATH,BUSINESS,Study1,U,99,10,JAM,User,-,"How many inidividuals out of 100 would provide the second word in this pair as their immediate response to the first word? |Type your response on a scale from 0-100 and then press Enter.",Study/JOL,JAM_Rating,3442,,,3063,3063,,,,0,1
6773f2c6f59707888206bdd1,6m6o5kx2dl,"Mediated JOLs",1,31,2025-10-20T21:15:24+00:00,5.6700258255005,1,JAM_stim.csv,JAM_proc.csv,JAM,JAM,CHOP,CUT,Study1,F,122,14,JAM,User,-,"How many inidividuals out of 100 would provide the second word in this pair as their immediate response to the first word? |Type your response on a scale from 0-100 and then press Enter.",Study/JOL,JAM_Rating,5072,,,4347,4514,,,,90,1
6773f2c6f59707888206bdd1,6m6o5kx2dl,"Mediated JOLs",1,32,2025-10-20T21:15:29+00:00,4.6548211574554,1,JAM_stim.csv,JAM_proc.csv,JAM,JAM,FEUD,FIGHT,Study1,F,131,38,JAM,User,-,"How many inidividuals out of 100 would provide the second word in this pair as their immediate response to the first word? |Type your response on a scale from 0-100 and then press Enter.",Study/JOL,JAM_Rating,4109,,,3413,3507,,,,30,1
6773f2c6f59707888206bdd1,6m6o5kx2dl,"Mediated JOLs",1,33,2025-10-20T21:15:35+00:00,6.5833868980408,1,JAM_stim.csv,JAM_proc.csv,JAM,JAM,HORNET,STING,Study1,F,130,89,JAM,User,-,"How many inidividuals out of 100 would provide the second word in this pair as their immediate response to the first word? |Type your response on a scale from 0-100 and then press Enter.",Study/JOL,JAM_Rating,5936,,,5146,5318,,,,90,1
6773f2c6f59707888206bdd1,6m6o5kx2dl,"Mediated JOLs",1,34,2025-10-20T21:15:38+00:00,2.9481520652771,1,JAM_stim.csv,JAM_proc.csv,JAM,JAM,AFFECTION,LOVE,Study1,F,116,55,JAM,User,-,"How many inidividuals out of 100 would provide the second word in this pair as their immediate response to the first word? |Type your response on a scale from 0-100 and then press Enter.",Study/JOL,JAM_Rating,2380,,,1774,1942,,,,90,1
6773f2c6f59707888206bdd1,6m6o5kx2dl,"Mediated JOLs",1,35,2025-10-20T21:15:41+00:00,2.9971828460693,1,JAM_stim.csv,JAM_proc.csv,JAM,JAM,HERD,COW,Study1,F,133,30,JAM,User,-,"How many inidividuals out of 100 would provide the second word in this pair as their immediate response to the first word? |Type your response on a scale from 0-100 and then press Enter.",Study/JOL,JAM_Rating,2377,,,1543,1688,,,,99,1
6773f2c6f59707888206bdd1,6m6o5kx2dl,"Mediated JOLs",1,36,2025-10-20T21:15:59+00:00,18.138972997665,1,JAM_stim.csv,JAM_proc.csv,JAM,JAM,VALLEY,PEAK,Study1,M,73,56,JAM,User,-,"How many inidividuals out of 100 would provide the second word in this pair as their immediate response to the first word? |Type your response on a scale from 0-100 and then press Enter.",Study/JOL,JAM_Rating,17594,,,10947,17113,,,,10,1
6773f2c6f59707888206bdd1,6m6o5kx2dl,"Mediated JOLs",1,37,2025-10-20T21:16:08+00:00,8.4621181488037,1,JAM_stim.csv,JAM_proc.csv,JAM,JAM,CHISEL,HAMMER,Study1,F,123,21,JAM,User,-,"How many inidividuals out of 100 would provide the second word in this pair as their immediate response to the first word? |Type your response on a scale from 0-100 and then press Enter.",Study/JOL,JAM_Rating,7780,,,5140,7322,,,,50,1
6773f2c6f59707888206bdd1,6m6o5kx2dl,"Mediated JOLs",1,38,2025-10-20T21:16:12+00:00,3.6950650215149,1,JAM_stim.csv,JAM_proc.csv,JAM,JAM,LITTER,TRASH,Study1,F,106,45,JAM,User,-,"How many inidividuals out of 100 would provide the second word in this pair as their immediate response to the first word? |Type your response on a scale from 0-100 and then press Enter.",Study/JOL,JAM_Rating,2553,,,1850,1995,,,,99,1
6773f2c6f59707888206bdd1,6m6o5kx2dl,"Mediated JOLs",1,39,2025-10-20T21:16:20+00:00,7.9814720153809,1,JAM_stim.csv,JAM_proc.csv,JAM,JAM,CEILING,CARPET,Study1,M,15,20,JAM,User,-,"How many inidividuals out of 100 would provide the second word in this pair as their immediate response to the first word? |Type your response on a scale from 0-100 and then press Enter.",Study/JOL,JAM_Rating,6894,,,6112,6183,,,,20,1
6773f2c6f59707888206bdd1,6m6o5kx2dl,"Mediated JOLs",1,40,2025-10-20T21:16:23+00:00,3.3773629665375,1,JAM_stim.csv,JAM_proc.csv,JAM,JAM,MIRROR,CHILDREN,Study1,U,104,63,JAM,User,-,"How many inidividuals out of 100 would provide the second word in this pair as their immediate response to the first word? |Type your response on a scale from 0-100 and then press Enter.",Study/JOL,JAM_Rating,2795,,,2433,2433,,,,0,1
6773f2c6f59707888206bdd1,6m6o5kx2dl,"Mediated JOLs",1,41,2025-10-20T21:16:30+00:00,6.9527678489685,1,JAM_stim.csv,JAM_proc.csv,JAM,JAM,CACTUS,PLANT,Study1,F,121,33,JAM,User,-,"How many inidividuals out of 100 would provide the second word in this pair as their immediate response to the first word? |Type your response on a scale from 0-100 and then press Enter.",Study/JOL,JAM_Rating,6381,,,5652,5784,,,,30,1
6773f2c6f59707888206bdd1,6m6o5kx2dl,"Mediated JOLs",1,42,2025-10-20T21:16:34+00:00,3.6164290904999,1,JAM_stim.csv,JAM_proc.csv,JAM,JAM,ORCHID,FLOWER,Study1,F,119,18,JAM,User,-,"How many inidividuals out of 100 would provide the second word in this pair as their immediate response to the first word? |Type your response on a scale from 0-100 and then press Enter.",Study/JOL,JAM_Rating,3217,,,2487,2619,,,,99,1
6773f2c6f59707888206bdd1,6m6o5kx2dl,"Mediated JOLs",1,43,2025-10-20T21:16:37+00:00,3.5593960285187,1,JAM_stim.csv,JAM_proc.csv,JAM,JAM,BAT,BOUNCE,Study1,M,12,46,JAM,User,-,"How many inidividuals out of 100 would provide the second word in this pair as their immediate response to the first word? |Type your response on a scale from 0-100 and then press Enter.",Study/JOL,JAM_Rating,3126,,,2510,2510,,,,0,1
6773f2c6f59707888206bdd1,6m6o5kx2dl,"Mediated JOLs",1,44,2025-10-20T21:16:45+00:00,7.5886828899384,1,JAM_stim.csv,JAM_proc.csv,JAM,JAM,DIETARY,SACK,Study1,U,97,15,JAM,User,-,"How many inidividuals out of 100 would provide the second word in this pair as their immediate response to the first word? |Type your response on a scale from 0-100 and then press Enter.",Study/JOL,JAM_Rating,7089,,,6480,6480,,,,0,1
6773f2c6f59707888206bdd1,6m6o5kx2dl,"Mediated JOLs",1,45,2025-10-20T21:16:49+00:00,3.8885011672974,1,JAM_stim.csv,JAM_proc.csv,JAM,JAM,CAKE,HAND,Study1,U,49,11,JAM,User,-,"How many inidividuals out of 100 would provide the second word in this pair as their immediate response to the first word? |Type your response on a scale from 0-100 and then press Enter.",Study/JOL,JAM_Rating,3319,,,2573,2677,,,,10,1
6773f2c6f59707888206bdd1,6m6o5kx2dl,"Mediated JOLs",1,46,2025-10-20T21:16:51+00:00,2.4487268924713,1,JAM_stim.csv,JAM_proc.csv,JAM,JAM,MAZE,PHONE,Study1,U,42,76,JAM,User,-,"How many inidividuals out of 100 would provide the second word in this pair as their immediate response to the first word? |Type your response on a scale from 0-100 and then press Enter.",Study/JOL,JAM_Rating,1906,,,1482,1482,,,,0,1
6773f2c6f59707888206bdd1,6m6o5kx2dl,"Mediated JOLs",1,47,2025-10-20T21:17:02+00:00,11.142286062241,1,JAM_stim.csv,JAM_proc.csv,JAM,JAM,ROOT,PLANT,Study1,F,110,70,JAM,User,-,"How many inidividuals out of 100 would provide the second word in this pair as their immediate response to the first word? |Type your response on a scale from 0-100 and then press Enter.",Study/JOL,JAM_Rating,10689,,,10094,10203,,,,80,1
6773f2c6f59707888206bdd1,6m6o5kx2dl,"Mediated JOLs",1,48,2025-10-20T21:17:05+00:00,3.1372780799866,1,JAM_stim.csv,JAM_proc.csv,JAM,JAM,MIRROR,MAROON,Study1,U,36,74,JAM,User,-,"How many inidividuals out of 100 would provide the second word in this pair as their immediate response to the first word? |Type your response on a scale from 0-100 and then press Enter.",Study/JOL,JAM_Rating,2601,,,2183,2183,,,,0,1
6773f2c6f59707888206bdd1,6m6o5kx2dl,"Mediated JOLs",1,49,2025-10-20T21:17:10+00:00,4.2667419910431,1,JAM_stim.csv,JAM_proc.csv,JAM,JAM,HAPPY,CAR,Study1,U,92,24,JAM,User,-,"How many inidividuals out of 100 would provide the second word in this pair as their immediate response to the first word? |Type your response on a scale from 0-100 and then press Enter.",Study/JOL,JAM_Rating,3803,,,3168,3168,,,,0,1
6773f2c6f59707888206bdd1,6m6o5kx2dl,"Mediated JOLs",1,50,2025-10-20T21:17:13+00:00,3.3317408561707,1,JAM_stim.csv,JAM_proc.csv,JAM,JAM,BRIDGE,WATER,Study1,F,135,48,JAM,User,-,"How many inidividuals out of 100 would provide the second word in this pair as their immediate response to the first word? |Type your response on a scale from 0-100 and then press Enter.",Study/JOL,JAM_Rating,2778,,,2035,2202,,,,90,1
6773f2c6f59707888206bdd1,6m6o5kx2dl,"Mediated JOLs",1,51,2025-10-20T21:17:17+00:00,4.3998739719391,1,JAM_stim.csv,JAM_proc.csv,JAM,JAM,CHERRY,RED,Study1,F,125,64,JAM,User,-,"How many inidividuals out of 100 would provide the second word in this pair as their immediate response to the first word? |Type your response on a scale from 0-100 and then press Enter.",Study/JOL,JAM_Rating,3887,,,1643,3556,,,,100,1
6773f2c6f59707888206bdd1,6m6o5kx2dl,"Mediated JOLs",1,52,2025-10-20T21:17:24+00:00,6.4627830982208,1,JAM_stim.csv,JAM_proc.csv,JAM,JAM,CREDIT,CARD,Study1,F,118,72,JAM,User,-,"How many inidividuals out of 100 would provide the second word in this pair as their immediate response to the first word? |Type your response on a scale from 0-100 and then press Enter.",Study/JOL,JAM_Rating,5962,,,3785,5659,,,,90,1
6773f2c6f59707888206bdd1,6m6o5kx2dl,"Mediated JOLs",1,53,2025-10-20T21:17:26+00:00,2.3908030986786,1,JAM_stim.csv,JAM_proc.csv,JAM,JAM,CRY,BOTTLE,Study1,M,16,95,JAM,User,-,"How many inidividuals out of 100 would provide the second word in this pair as their immediate response to the first word? |Type your response on a scale from 0-100 and then press Enter.",Study/JOL,JAM_Rating,1783,,,1480,1480,,,,0,1
6773f2c6f59707888206bdd1,6m6o5kx2dl,"Mediated JOLs",1,54,2025-10-20T21:17:31+00:00,4.630569934845,1,JAM_stim.csv,JAM_proc.csv,JAM,JAM,BIRTHDAY,PIE,Study1,M,9,75,JAM,User,-,"How many inidividuals out of 100 would provide the second word in this pair as their immediate response to the first word? |Type your response on a scale from 0-100 and then press Enter.",Study/JOL,JAM_Rating,4088,,,3955,3955,,,,1,1
6773f2c6f59707888206bdd1,6m6o5kx2dl,"Mediated JOLs",1,55,2025-10-20T21:17:36+00:00,5.7204999923706,1,JAM_stim.csv,JAM_proc.csv,JAM,JAM,WORD,SENTENCE,Study1,F,112,77,JAM,User,-,"How many inidividuals out of 100 would provide the second word in this pair as their immediate response to the first word? |Type your response on a scale from 0-100 and then press Enter.",Study/JOL,JAM_Rating,5247,,,1687,3254,,,,80,1
6773f2c6f59707888206bdd1,6m6o5kx2dl,"Mediated JOLs",1,56,2025-10-20T21:17:39+00:00,2.6651799678802,1,JAM_stim.csv,JAM_proc.csv,JAM,JAM,WEDDING,FINGER,Study1,M,17,16,JAM,User,-,"How many inidividuals out of 100 would provide the second word in this pair as their immediate response to the first word? |Type your response on a scale from 0-100 and then press Enter.",Study/JOL,JAM_Rating,2111,,,1647,1647,,,,0,1
6773f2c6f59707888206bdd1,6m6o5kx2dl,"Mediated JOLs",1,57,2025-10-20T21:17:44+00:00,4.6679511070251,1,JAM_stim.csv,JAM_proc.csv,JAM,JAM,SWAN,BIRD,Study1,F,111,27,JAM,User,-,"How many inidividuals out of 100 would provide the second word in this pair as their immediate response to the first word? |Type your response on a scale from 0-100 and then press Enter.",Study/JOL,JAM_Rating,4123,,,1527,3758,,,,80,1
6773f2c6f59707888206bdd1,6m6o5kx2dl,"Mediated JOLs",1,58,2025-10-20T21:17:46+00:00,2.4182469844818,1,JAM_stim.csv,JAM_proc.csv,JAM,JAM,SIGN,TICK,Study1,U,47,61,JAM,User,-,"How many inidividuals out of 100 would provide the second word in this pair as their immediate response to the first word? |Type your response on a scale from 0-100 and then press Enter.",Study/JOL,JAM_Rating,1992,,,1603,1603,,,,0,1
6773f2c6f59707888206bdd1,6m6o5kx2dl,"Mediated JOLs",1,59,2025-10-20T21:18:09+00:00,22.856557846069,1,JAM_stim.csv,JAM_proc.csv,JAM,JAM,EYES,SMELL,Study1,M,65,34,JAM,User,-,"How many inidividuals out of 100 would provide the second word in this pair as their immediate response to the first word? |Type your response on a scale from 0-100 and then press Enter.",Study/JOL,JAM_Rating,22282,,,17668,22003,,,,0,1
6773f2c6f59707888206bdd1,6m6o5kx2dl,"Mediated JOLs",1,60,2025-10-20T21:18:24+00:00,14.454468011856,1,JAM_stim.csv,JAM_proc.csv,JAM,JAM,HORSE,WHEEL,Study1,M,14,19,JAM,User,-,"How many inidividuals out of 100 would provide the second word in this pair as their immediate response to the first word? |Type your response on a scale from 0-100 and then press Enter.",Study/JOL,JAM_Rating,13877,,,10208,12825,,,,30,0.878
6773f2c6f59707888206bdd1,6m6o5kx2dl,"Mediated JOLs",1,61,2025-10-20T21:18:27+00:00,3.2139959335327,1,JAM_stim.csv,JAM_proc.csv,JAM,JAM,SHELL,SHAKE,Study1,U,43,22,JAM,User,-,"How many inidividuals out of 100 would provide the second word in this pair as their immediate response to the first word? |Type your response on a scale from 0-100 and then press Enter.",Study/JOL,JAM_Rating,2714,,,2397,2397,,,,0,1
6773f2c6f59707888206bdd1,6m6o5kx2dl,"Mediated JOLs",1,62,2025-10-20T21:18:33+00:00,6.355042219162,1,JAM_stim.csv,JAM_proc.csv,JAM,JAM,REALITY,ISLAND,Study1,M,64,47,JAM,User,-,"How many inidividuals out of 100 would provide the second word in this pair as their immediate response to the first word? |Type your response on a scale from 0-100 and then press Enter.",Study/JOL,JAM_Rating,5781,,,4934,5041,,,,20,1
6773f2c6f59707888206bdd1,6m6o5kx2dl,"Mediated JOLs",1,63,2025-10-20T21:18:39+00:00,5.9872689247131,1,JAM_stim.csv,JAM_proc.csv,JAM,JAM,CASH,STUDY,Study1,U,105,41,JAM,User,-,"How many inidividuals out of 100 would provide the second word in this pair as their immediate response to the first word? |Type your response on a scale from 0-100 and then press Enter.",Study/JOL,JAM_Rating,5416,,,2204,2205,,,,0,1
6773f2c6f59707888206bdd1,6m6o5kx2dl,"Mediated JOLs",1,64,2025-10-20T21:18:44+00:00,4.5017509460449,1,JAM_stim.csv,JAM_proc.csv,JAM,JAM,DOCUMENT,PAPER,Study1,F,127,83,JAM,User,-,"How many inidividuals out of 100 would provide the second word in this pair as their immediate response to the first word? |Type your response on a scale from 0-100 and then press Enter.",Study/JOL,JAM_Rating,3993,,,1556,3645,,,,60,1
6773f2c6f59707888206bdd1,6m6o5kx2dl,"Mediated JOLs",1,65,2025-10-20T21:18:49+00:00,5.2164299488068,1,JAM_stim.csv,JAM_proc.csv,JAM,JAM,TRAP,CAVE,Study1,M,70,58,JAM,User,-,"How many inidividuals out of 100 would provide the second word in this pair as their immediate response to the first word? |Type your response on a scale from 0-100 and then press Enter.",Study/JOL,JAM_Rating,4711,,,4231,4335,,,,10,1
6773f2c6f59707888206bdd1,6m6o5kx2dl,"Mediated JOLs",1,66,2025-10-20T21:18:52+00:00,2.7822470664978,1,JAM_stim.csv,JAM_proc.csv,JAM,JAM,MEAT,KEYS,Study1,U,41,86,JAM,User,-,"How many inidividuals out of 100 would provide the second word in this pair as their immediate response to the first word? |Type your response on a scale from 0-100 and then press Enter.",Study/JOL,JAM_Rating,2281,,,1601,1601,,,,0,1
6773f2c6f59707888206bdd1,6m6o5kx2dl,"Mediated JOLs",1,67,2025-10-20T21:18:55+00:00,3.6590270996094,1,JAM_stim.csv,JAM_proc.csv,JAM,JAM,BLAZE,FIRE,Study1,F,126,57,JAM,User,-,"How many inidividuals out of 100 would provide the second word in this pair as their immediate response to the first word? |Type your response on a scale from 0-100 and then press Enter.",Study/JOL,JAM_Rating,3134,,,2226,2602,,,,80,1
6773f2c6f59707888206bdd1,6m6o5kx2dl,"Mediated JOLs",1,68,2025-10-20T21:18:58+00:00,3.1673548221588,1,JAM_stim.csv,JAM_proc.csv,JAM,JAM,OVEN,BASKET,Study1,M,71,35,JAM,User,-,"How many inidividuals out of 100 would provide the second word in this pair as their immediate response to the first word? |Type your response on a scale from 0-100 and then press Enter.",Study/JOL,JAM_Rating,2619,,,2226,2226,,,,0,1
6773f2c6f59707888206bdd1,6m6o5kx2dl,"Mediated JOLs",1,69,2025-10-20T21:19:02+00:00,3.1463949680328,1,JAM_stim.csv,JAM_proc.csv,JAM,JAM,TEMPERATURE,MORNING,Study1,U,48,82,JAM,User,-,"How many inidividuals out of 100 would provide the second word in this pair as their immediate response to the first word? |Type your response on a scale from 0-100 and then press Enter.",Study/JOL,JAM_Rating,2628,,,2302,2302,,,,0,1
6773f2c6f59707888206bdd1,6m6o5kx2dl,"Mediated JOLs",1,70,2025-10-20T21:19:25+00:00,23.386136054993,1,JAM_stim.csv,JAM_proc.csv,JAM,JAM,BENCH,HORN,Study1,U,98,67,JAM,User,-,"How many inidividuals out of 100 would provide the second word in this pair as their immediate response to the first word? |Type your response on a scale from 0-100 and then press Enter.",Study/JOL,JAM_Rating,22777,,,10635,10636,,,,0,0.91
6773f2c6f59707888206bdd1,6m6o5kx2dl,"Mediated JOLs",1,71,2025-10-20T21:19:32+00:00,7.016263961792,1,JAM_stim.csv,JAM_proc.csv,JAM,JAM,CHILL,COLD,Study1,F,132,88,JAM,User,-,"How many inidividuals out of 100 would provide the second word in this pair as their immediate response to the first word? |Type your response on a scale from 0-100 and then press Enter.",Study/JOL,JAM_Rating,6348,,,2074,5838,,,,70,1
6773f2c6f59707888206bdd1,6m6o5kx2dl,"Mediated JOLs",1,72,2025-10-20T21:19:37+00:00,4.5434911251068,1,JAM_stim.csv,JAM_proc.csv,JAM,JAM,HARD,COTTON,Study1,M,20,69,JAM,User,-,"How many inidividuals out of 100 would provide the second word in this pair as their immediate response to the first word? |Type your response on a scale from 0-100 and then press Enter.",Study/JOL,JAM_Rating,3885,,,2021,2021,,,,0,1
6773f2c6f59707888206bdd1,6m6o5kx2dl,"Mediated JOLs",1,73,2025-10-20T21:19:40+00:00,3.4216330051422,1,JAM_stim.csv,JAM_proc.csv,JAM,JAM,TUNA,FISH,Study1,F,120,13,JAM,User,-,"How many inidividuals out of 100 would provide the second word in this pair as their immediate response to the first word? |Type your response on a scale from 0-100 and then press Enter.",Study/JOL,JAM_Rating,2984,,,1596,1940,,,,100,1
6773f2c6f59707888206bdd1,6m6o5kx2dl,"Mediated JOLs",1,74,2025-10-20T21:19:45+00:00,4.6075479984283,1,JAM_stim.csv,JAM_proc.csv,JAM,JAM,HYGIENE,CLEAN,Study1,F,113,36,JAM,User,-,"How many inidividuals out of 100 would provide the second word in this pair as their immediate response to the first word? |Type your response on a scale from 0-100 and then press Enter.",Study/JOL,JAM_Rating,4134,,,3297,3587,,,,100,1
6773f2c6f59707888206bdd1,6m6o5kx2dl,"Mediated JOLs",1,75,2025-10-20T21:19:49+00:00,4.1745798587799,1,JAM_stim.csv,JAM_proc.csv,JAM,JAM,ART,WOLF,Study1,U,93,96,JAM,User,-,"How many inidividuals out of 100 would provide the second word in this pair as their immediate response to the first word? |Type your response on a scale from 0-100 and then press Enter.",Study/JOL,JAM_Rating,3749,,,1790,3391,,,,0,1
6773f2c6f59707888206bdd1,6m6o5kx2dl,"Mediated JOLs",1,76,2025-10-20T21:19:52+00:00,3.664046049118,1,JAM_stim.csv,JAM_proc.csv,JAM,JAM,STRONG,ACCIDENT,Study1,U,94,68,JAM,User,-,"How many inidividuals out of 100 would provide the second word in this pair as their immediate response to the first word? |Type your response on a scale from 0-100 and then press Enter.",Study/JOL,JAM_Rating,3135,,,2146,2146,,,,0,1
6773f2c6f59707888206bdd1,6m6o5kx2dl,"Mediated JOLs",1,77,2025-10-20T21:19:57+00:00,4.3676700592041,1,JAM_stim.csv,JAM_proc.csv,JAM,JAM,SIP,DRINK,Study1,F,117,52,JAM,User,-,"How many inidividuals out of 100 would provide the second word in this pair as their immediate response to the first word? |Type your response on a scale from 0-100 and then press Enter.",Study/JOL,JAM_Rating,3941,,,3049,3163,,,,70,1
6773f2c6f59707888206bdd1,6m6o5kx2dl,"Mediated JOLs",1,78,2025-10-20T21:19:59+00:00,2.2353119850159,1,JAM_stim.csv,JAM_proc.csv,JAM,JAM,BEACH,BOX,Study1,M,7,80,JAM,User,-,"How many inidividuals out of 100 would provide the second word in this pair as their immediate response to the first word? |Type your response on a scale from 0-100 and then press Enter.",Study/JOL,JAM_Rating,1622,,,1175,1175,,,,0,1
6773f2c6f59707888206bdd1,6m6o5kx2dl,"Mediated JOLs",1,79,2025-10-20T21:20:03+00:00,4.0577619075775,1,JAM_stim.csv,JAM_proc.csv,JAM,JAM,TOOTH,HAIR,Study1,M,19,40,JAM,User,-,"How many inidividuals out of 100 would provide the second word in this pair as their immediate response to the first word? |Type your response on a scale from 0-100 and then press Enter.",Study/JOL,JAM_Rating,3540,,,2802,2802,,,,0,1
6773f2c6f59707888206bdd1,6m6o5kx2dl,"Mediated JOLs",1,80,2025-10-20T21:20:08+00:00,4.9155130386353,1,JAM_stim.csv,JAM_proc.csv,JAM,JAM,ROUGH,SILK,Study1,M,10,29,JAM,User,-,"How many inidividuals out of 100 would provide the second word in this pair as their immediate response to the first word? |Type your response on a scale from 0-100 and then press Enter.",Study/JOL,JAM_Rating,4477,,,4205,4205,,,,2,1
6773f2c6f59707888206bdd1,6m6o5kx2dl,"Mediated JOLs",1,81,2025-10-20T21:20:10+00:00,2.3925859928131,1,JAM_stim.csv,JAM_proc.csv,JAM,JAM,FUZZY,BANG,Study1,U,50,85,JAM,User,-,"How many inidividuals out of 100 would provide the second word in this pair as their immediate response to the first word? |Type your response on a scale from 0-100 and then press Enter.",Study/JOL,JAM_Rating,1882,,,1426,1426,,,,0,1
6773f2c6f59707888206bdd1,6m6o5kx2dl,"Mediated JOLs",1,82,2025-10-20T21:20:15+00:00,4.4410409927368,1,JAM_stim.csv,JAM_proc.csv,JAM,JAM,RAZOR,MUSCLE,Study1,M,75,43,JAM,User,-,"How many inidividuals out of 100 would provide the second word in this pair as their immediate response to the first word? |Type your response on a scale from 0-100 and then press Enter.",Study/JOL,JAM_Rating,3233,,,2710,2710,,,,0,1
6773f2c6f59707888206bdd1,6m6o5kx2dl,"Mediated JOLs",1,83,2025-10-20T21:20:19+00:00,4.6791779994965,1,JAM_stim.csv,JAM_proc.csv,JAM,JAM,CRACKLE,ELECTION,Study1,U,39,42,JAM,User,-,"How many inidividuals out of 100 would provide the second word in this pair as their immediate response to the first word? |Type your response on a scale from 0-100 and then press Enter.",Study/JOL,JAM_Rating,4254,,,3823,3823,,,,0,1
6773f2c6f59707888206bdd1,6m6o5kx2dl,"Mediated JOLs",1,84,2025-10-20T21:20:25+00:00,5.6506631374359,1,JAM_stim.csv,JAM_proc.csv,JAM,JAM,ATTIRE,CLOTHES,Study1,F,124,7,JAM,User,-,"How many inidividuals out of 100 would provide the second word in this pair as their immediate response to the first word? |Type your response on a scale from 0-100 and then press Enter.",Study/JOL,JAM_Rating,5089,,,3414,4074,,,,70,1
6773f2c6f59707888206bdd1,6m6o5kx2dl,"Mediated JOLs",1,85,2025-10-20T21:20:30+00:00,4.6707570552826,1,JAM_stim.csv,JAM_proc.csv,JAM,JAM,GRILL,THIGH,Study1,M,72,84,JAM,User,-,"How many inidividuals out of 100 would provide the second word in this pair as their immediate response to the first word? |Type your response on a scale from 0-100 and then press Enter.",Study/JOL,JAM_Rating,4135,,,3423,3521,,,,10,1
6773f2c6f59707888206bdd1,6m6o5kx2dl,"Mediated JOLs",1,86,2025-10-20T21:20:32+00:00,2.5326869487762,1,JAM_stim.csv,JAM_proc.csv,JAM,JAM,GIVE,STEAK,Study1,U,38,51,JAM,User,-,"How many inidividuals out of 100 would provide the second word in this pair as their immediate response to the first word? |Type your response on a scale from 0-100 and then press Enter.",Study/JOL,JAM_Rating,2122,,,1705,1705,,,,0,1
6773f2c6f59707888206bdd1,6m6o5kx2dl,"Mediated JOLs",1,87,2025-10-20T21:20:34+00:00,2.0785238742828,1,JAM_stim.csv,JAM_proc.csv,JAM,JAM,SUGAR,RIDDLE,Study1,U,95,23,JAM,User,-,"How many inidividuals out of 100 would provide the second word in this pair as their immediate response to the first word? |Type your response on a scale from 0-100 and then press Enter.",Study/JOL,JAM_Rating,1660,,,1214,1214,,,,0,1
6773f2c6f59707888206bdd1,6m6o5kx2dl,"Mediated JOLs",1,88,2025-10-20T21:20:39+00:00,4.9560420513153,1,JAM_stim.csv,JAM_proc.csv,JAM,JAM,SCALP,HEAD,Study1,F,108,91,JAM,User,-,"How many inidividuals out of 100 would provide the second word in this pair as their immediate response to the first word? |Type your response on a scale from 0-100 and then press Enter.",Study/JOL,JAM_Rating,4445,,,1373,4111,,,,90,1
6773f2c6f59707888206bdd1,6m6o5kx2dl,"Mediated JOLs",1,89,2025-10-20T21:20:45+00:00,5.6763739585876,1,JAM_stim.csv,JAM_proc.csv,JAM,JAM,LISTEN,FICTION,Study1,U,44,37,JAM,User,-,"How many inidividuals out of 100 would provide the second word in this pair as their immediate response to the first word? |Type your response on a scale from 0-100 and then press Enter.",Study/JOL,JAM_Rating,5096,,,2929,4571,,,,15,1
6773f2c6f59707888206bdd1,6m6o5kx2dl,"Mediated JOLs",1,90,2025-10-20T21:20:51+00:00,6.1172060966492,1,JAM_stim.csv,JAM_proc.csv,JAM,JAM,PILL,BOTTLE,Study1,F,115,17,JAM,User,-,"How many inidividuals out of 100 would provide the second word in this pair as their immediate response to the first word? |Type your response on a scale from 0-100 and then press Enter.",Study/JOL,JAM_Rating,5593,,,1156,5062,,,,90,1
6773f2c6f59707888206bdd1,6m6o5kx2dl,"Mediated JOLs",1,91,2025-10-20T21:20:57+00:00,5.6318690776825,1,JAM_stim.csv,JAM_proc.csv,JAM,JAM,LION,STRIPES,Study1,M,6,9,JAM,User,-,"How many inidividuals out of 100 would provide the second word in this pair as their immediate response to the first word? |Type your response on a scale from 0-100 and then press Enter.",Study/JOL,JAM_Rating,5090,,,4851,4851,,,,5,1
6773f2c6f59707888206bdd1,6m6o5kx2dl,"Mediated JOLs",1,92,2025-10-20T21:20:59+00:00,2.2311589717865,1,JAM_stim.csv,JAM_proc.csv,JAM,JAM,KEYS,ROD,Study1,U,45,50,JAM,User,-,"How many inidividuals out of 100 would provide the second word in this pair as their immediate response to the first word? |Type your response on a scale from 0-100 and then press Enter.",Study/JOL,JAM_Rating,1762,,,1412,1412,,,,0,1
6773f2c6f59707888206bdd1,6m6o5kx2dl,"Mediated JOLs",1,93,2025-10-20T21:21:03+00:00,4.4109699726105,1,JAM_stim.csv,JAM_proc.csv,JAM,JAM,NAP,SLEEP,Study1,F,114,59,JAM,User,-,"How many inidividuals out of 100 would provide the second word in this pair as their immediate response to the first word? |Type your response on a scale from 0-100 and then press Enter.",Study/JOL,JAM_Rating,3864,,,2995,3173,,,,90,1
6773f2c6f59707888206bdd1,6m6o5kx2dl,"Mediated JOLs",1,94,2025-10-20T21:21:06+00:00,2.5593779087067,1,JAM_stim.csv,JAM_proc.csv,JAM,JAM,INCENSE,SMELL,Study1,F,128,66,JAM,User,-,"How many inidividuals out of 100 would provide the second word in this pair as their immediate response to the first word? |Type your response on a scale from 0-100 and then press Enter.",Study/JOL,JAM_Rating,1997,,,1484,1484,,,,0,1
6773f2c6f59707888206bdd1,6m6o5kx2dl,"Mediated JOLs",1,95,2025-10-20T21:21:11+00:00,5.0559289455414,1,JAM_stim.csv,JAM_proc.csv,JAM,JAM,PANTS,COLLAR,Study1,M,63,12,JAM,User,-,"How many inidividuals out of 100 would provide the second word in this pair as their immediate response to the first word? |Type your response on a scale from 0-100 and then press Enter.",Study/JOL,JAM_Rating,4445,,,3788,3896,,,,10,1
6773f2c6f59707888206bdd1,6m6o5kx2dl,"Mediated JOLs",1,96,2025-10-20T21:21:14+00:00,2.8604810237885,1,JAM_stim.csv,JAM_proc.csv,JAM,JAM,WAGE,MONEY,Study1,F,107,53,JAM,User,-,"How many inidividuals out of 100 would provide the second word in this pair as their immediate response to the first word? |Type your response on a scale from 0-100 and then press Enter.",Study/JOL,JAM_Rating,2407,,,1645,1957,,,,100,1
6773f2c6f59707888206bdd1,6m6o5kx2dl,"Mediated JOLs",1,97,2025-10-20T21:21:17+00:00,2.7184770107269,1,JAM_stim.csv,JAM_proc.csv,JAM,JAM,WAR,QUIET,Study1,M,8,79,JAM,User,-,"How many inidividuals out of 100 would provide the second word in this pair as their immediate response to the first word? |Type your response on a scale from 0-100 and then press Enter.",Study/JOL,JAM_Rating,2258,,,1211,1211,,,,0,1
6773f2c6f59707888206bdd1,6m6o5kx2dl,"Mediated JOLs",1,98,2025-10-20T21:21:23+00:00,6.4508669376373,1,JAM_stim.csv,JAM_proc.csv,JAM,JAM,ARTERY,BRONZE,Study1,U,103,92,JAM,User,-,"How many inidividuals out of 100 would provide the second word in this pair as their immediate response to the first word? |Type your response on a scale from 0-100 and then press Enter.",Study/JOL,JAM_Rating,5878,,,1903,5766,,,,5,1
6773f2c6f59707888206bdd1,6m6o5kx2dl,"Mediated JOLs",1,99,2025-10-20T21:21:29+00:00,5.4091792106628,1,JAM_stim.csv,JAM_proc.csv,JAM,JAM,SCHOOL,STOP,Study1,M,62,49,JAM,User,-,"How many inidividuals out of 100 would provide the second word in this pair as their immediate response to the first word? |Type your response on a scale from 0-100 and then press Enter.",Study/JOL,JAM_Rating,4928,,,4038,4606,,,,15,1
6773f2c6f59707888206bdd1,6m6o5kx2dl,"Mediated JOLs",1,100,2025-10-20T21:21:58+00:00,29.597407817841,1,JAM_stim.csv,JAM_proc.csv,JAM,JAM,RAKE,SEED,Study1,M,69,39,JAM,User,-,"How many inidividuals out of 100 would provide the second word in this pair as their immediate response to the first word? |Type your response on a scale from 0-100 and then press Enter.",Study/JOL,JAM_Rating,29120,,,28079,28079,,,,0,1
6773f2c6f59707888206bdd1,6m6o5kx2dl,"Mediated JOLs",1,101,2025-10-20T21:22:24+00:00,25.440196037292,1,JAM_stim.csv,JAM_proc.csv,JAM,JAM,HEAVY,FEATHER,Study1,M,68,54,JAM,User,-,"How many inidividuals out of 100 would provide the second word in this pair as their immediate response to the first word? |Type your response on a scale from 0-100 and then press Enter.",Study/JOL,JAM_Rating,24853,,,14658,14658,,,,0,1
6773f2c6f59707888206bdd1,6m6o5kx2dl,"Mediated JOLs",1,102,2025-10-20T21:22:40+00:00,16.494846105576,1,JAM_stim.csv,JAM_proc.csv,JAM,JAM,,,,,,0,Instruct,User,-,"You have completed this section. Please press Enter.",,Instruct7,15956,,,-1,-1,,,,,0.483
6773f2c6f59707888206bdd1,6m6o5kx2dl,"Mediated JOLs",1,103,2025-10-20T21:22:43+00:00,3.0453720092773,1,JAM_stim.csv,JAM_proc.csv,JAM,JAM,,,,,,0,Instruct,User,-,"The following screen will ask you a few questions abour your experience today. You must complete these questions to receive credit.",,Instruct8,2461,,,-1,-1,,,,,1
