Username,ID,ExperimentName,Session,Trial,Date,TimeDif,"Condition Number","Stimuli File","Order File","Condition Description","Condition Notes",Stimuli*Cue,Stimuli*Answer,Stimuli*Shuffle,"Stimuli*Stimuli Notes",Stimuli*Value,Procedure*Item,"Procedure*Trial Type","Procedure*Max Time","Procedure*Min Time",Procedure*Text,"Procedure*Procedure Notes",Procedure*Shuffle,Response*RT,Response*Response,Response*Accuracy,Response*RTfirst,Response*RTlast,Response*strictAcc,Response*lenientAcc,Response*focus,Response*JOL,Response*Focus
62aa591a476ebabe28612a92,ayej98gwix,"Mediated JOLs",1,1,2025-10-20T22:51:28+00:00,134.38415694237,1,JAM_stim.csv,JAM_proc.csv,JAM,JAM,,,,,,0,Instruct,-,5,"In this section, you will be presented with a series of word pairs. We are interested in how related you perceive the words in each pair to be.",Initial_Instruct,Instruct1,134028,,,-1,-1,,,,,0.092
62aa591a476ebabe28612a92,ayej98gwix,"Mediated JOLs",1,2,2025-10-20T22:56:15+00:00,286.70559191704,1,JAM_stim.csv,JAM_proc.csv,JAM,JAM,,,,,,0,Instruct,-,5,"Specifically, you will be asked to rate how often the words in each pair are used together. Assume 100 college students from around the nation gave responses to each CUE (first) word. How many of these 100 students do you think would have given the RESPONSE (second) word?",,Instruct13,285976,,,-1,-1,,,,,0.067
62aa591a476ebabe28612a92,ayej98gwix,"Mediated JOLs",1,3,2025-10-20T22:56:24+00:00,9.4619460105896,1,JAM_stim.csv,JAM_proc.csv,JAM,JAM,,,,,,0,Instruct,-,5,"For example, if you are given the pair CAT - DOG, a rating of 0 indicates that DOG is not a commonly given response to the word CAT, while a score of 100 indicates that DOG would be a common response.",,Instruct14,8972,,,-1,-1,,,,,1
62aa591a476ebabe28612a92,ayej98gwix,"Mediated JOLs",1,4,2025-10-20T23:01:32+00:00,307.58941197395,1,JAM_stim.csv,JAM_proc.csv,JAM,JAM,,,,,,0,Instruct,-,5,"When making your ratings, it is criticial that you use the full range of the scale. You will be disqualified for only giving ratings of 0 or 100! After making your rating, you will press Enter to advance to the next pair.",,Instruct15,306919,,,-1,-1,,,,,0.106
62aa591a476ebabe28612a92,ayej98gwix,"Mediated JOLs",1,5,2025-10-20T23:01:35+00:00,2.7707459926605,1,JAM_stim.csv,JAM_proc.csv,JAM,JAM,,,,,,0,Instruct,User,-,"Before starting the study, you will complete a short practice session to get familiar with the judgment task. Press Enter when you are ready to begin.",,Instruct16,2421,,,-1,-1,,,,,1
62aa591a476ebabe28612a92,ayej98gwix,"Mediated JOLs",1,6,2025-10-20T23:01:41+00:00,5.9179730415344,1,JAM_stim.csv,JAM_proc.csv,JAM,JAM,PEANUT,BUTTER,Practice,Practice,3,3,JAM,User,-,"How many inidividuals out of 100 would provide the second word in this pair as their immediate response to the first word? |Type your response on a scale from 0-100 and then press Enter.",Study/JOL,Practice,5573,,,3165,3702,,,,100,1
62aa591a476ebabe28612a92,ayej98gwix,"Mediated JOLs",1,7,2025-10-20T23:01:43+00:00,2.5533800125122,1,JAM_stim.csv,JAM_proc.csv,JAM,JAM,PITCHER,CATCHER,Practice,Practice,2,5,JAM,User,-,"How many inidividuals out of 100 would provide the second word in this pair as their immediate response to the first word? |Type your response on a scale from 0-100 and then press Enter.",Study/JOL,Practice,2193,,,1224,1513,,,,100,1
62aa591a476ebabe28612a92,ayej98gwix,"Mediated JOLs",1,8,2025-10-20T23:01:48+00:00,4.4339761734009,1,JAM_stim.csv,JAM_proc.csv,JAM,JAM,SCARE,FRIGHT,Practice,Practice,4,6,JAM,User,-,"How many inidividuals out of 100 would provide the second word in this pair as their immediate response to the first word? |Type your response on a scale from 0-100 and then press Enter.",Study/JOL,Practice,4085,,,1905,2184,,,,100,1
62aa591a476ebabe28612a92,ayej98gwix,"Mediated JOLs",1,9,2025-10-20T23:01:51+00:00,3.7708539962769,1,JAM_stim.csv,JAM_proc.csv,JAM,JAM,TREES,GREEN,Practice,Practice,1,4,JAM,User,-,"How many inidividuals out of 100 would provide the second word in this pair as their immediate response to the first word? |Type your response on a scale from 0-100 and then press Enter.",Study/JOL,Practice,3418,,,1897,2920,,,,80,1
62aa591a476ebabe28612a92,ayej98gwix,"Mediated JOLs",1,10,2025-10-20T23:02:11+00:00,19.438698768616,1,JAM_stim.csv,JAM_proc.csv,JAM,JAM,SPACE,JAM,Practice,Practice,5,2,JAM,User,-,"How many inidividuals out of 100 would provide the second word in this pair as their immediate response to the first word? |Type your response on a scale from 0-100 and then press Enter.",Study/JOL,Practice,19090,,,18519,18577,,,,70,0.295
62aa591a476ebabe28612a92,ayej98gwix,"Mediated JOLs",1,11,2025-10-20T23:02:14+00:00,2.9687721729279,1,JAM_stim.csv,JAM_proc.csv,JAM,JAM,,,,,,0,Instruct,User,-,"You will now begin the study. Press Enter when you are ready to begin.",,Instruct_Full_task,2604,,,-1,-1,,,,,1
62aa591a476ebabe28612a92,ayej98gwix,"Mediated JOLs",1,12,2025-10-20T23:04:45+00:00,150.78967690468,1,JAM_stim.csv,JAM_proc.csv,JAM,JAM,BOTH,OUNCE,Study1,U,102,14,JAM,User,-,"How many inidividuals out of 100 would provide the second word in this pair as their immediate response to the first word? |Type your response on a scale from 0-100 and then press Enter.",Study/JOL,JAM_Rating,150272,,,149477,149544,,,,10,0.04
62aa591a476ebabe28612a92,ayej98gwix,"Mediated JOLs",1,13,2025-10-20T23:05:13+00:00,28.74906206131,1,JAM_stim.csv,JAM_proc.csv,JAM,JAM,WORD,SENTENCE,Study1,F,112,95,JAM,User,-,"How many inidividuals out of 100 would provide the second word in this pair as their immediate response to the first word? |Type your response on a scale from 0-100 and then press Enter.",Study/JOL,JAM_Rating,28410,,,27474,27988,,,,70,0.303
62aa591a476ebabe28612a92,ayej98gwix,"Mediated JOLs",1,14,2025-10-20T23:05:17+00:00,3.3287169933319,1,JAM_stim.csv,JAM_proc.csv,JAM,JAM,HORSE,WHEEL,Study1,M,14,87,JAM,User,-,"How many inidividuals out of 100 would provide the second word in this pair as their immediate response to the first word? |Type your response on a scale from 0-100 and then press Enter.",Study/JOL,JAM_Rating,2978,,,2496,2550,,,,15,1
62aa591a476ebabe28612a92,ayej98gwix,"Mediated JOLs",1,15,2025-10-20T23:05:20+00:00,3.7362399101257,1,JAM_stim.csv,JAM_proc.csv,JAM,JAM,MIRROR,MAROON,Study1,U,36,83,JAM,User,-,"How many inidividuals out of 100 would provide the second word in this pair as their immediate response to the first word? |Type your response on a scale from 0-100 and then press Enter.",Study/JOL,JAM_Rating,3388,,,1845,1871,,,,0,1
62aa591a476ebabe28612a92,ayej98gwix,"Mediated JOLs",1,16,2025-10-20T23:05:57+00:00,36.187808036804,1,JAM_stim.csv,JAM_proc.csv,JAM,JAM,GRILL,THIGH,Study1,M,72,80,JAM,User,-,"How many inidividuals out of 100 would provide the second word in this pair as their immediate response to the first word? |Type your response on a scale from 0-100 and then press Enter.",Study/JOL,JAM_Rating,35533,,,34673,34673,,,,5,1
62aa591a476ebabe28612a92,ayej98gwix,"Mediated JOLs",1,17,2025-10-20T23:06:41+00:00,43.865102052689,1,JAM_stim.csv,JAM_proc.csv,JAM,JAM,SCHOOL,STOP,Study1,M,62,74,JAM,User,-,"How many inidividuals out of 100 would provide the second word in this pair as their immediate response to the first word? |Type your response on a scale from 0-100 and then press Enter.",Study/JOL,JAM_Rating,43420,,,42732,42880,,,,50,1
62aa591a476ebabe28612a92,ayej98gwix,"Mediated JOLs",1,18,2025-10-20T23:07:53+00:00,72.687074899673,1,JAM_stim.csv,JAM_proc.csv,JAM,JAM,ART,WOLF,Study1,U,93,41,JAM,User,-,"How many inidividuals out of 100 would provide the second word in this pair as their immediate response to the first word? |Type your response on a scale from 0-100 and then press Enter.",Study/JOL,JAM_Rating,71967,,,71472,71472,,,,6,0.087
62aa591a476ebabe28612a92,ayej98gwix,"Mediated JOLs",1,19,2025-10-20T23:07:56+00:00,3.2060661315918,1,JAM_stim.csv,JAM_proc.csv,JAM,JAM,SCALP,HEAD,Study1,F,108,78,JAM,User,-,"How many inidividuals out of 100 would provide the second word in this pair as their immediate response to the first word? |Type your response on a scale from 0-100 and then press Enter.",Study/JOL,JAM_Rating,2866,,,2219,2341,,,,85,1
62aa591a476ebabe28612a92,ayej98gwix,"Mediated JOLs",1,20,2025-10-20T23:08:00+00:00,3.3486108779907,1,JAM_stim.csv,JAM_proc.csv,JAM,JAM,BENCH,HORN,Study1,U,98,11,JAM,User,-,"How many inidividuals out of 100 would provide the second word in this pair as their immediate response to the first word? |Type your response on a scale from 0-100 and then press Enter.",Study/JOL,JAM_Rating,2989,,,2345,2345,,,,5,1
62aa591a476ebabe28612a92,ayej98gwix,"Mediated JOLs",1,21,2025-10-20T23:08:04+00:00,3.801500082016,1,JAM_stim.csv,JAM_proc.csv,JAM,JAM,WEDDING,FINGER,Study1,M,17,89,JAM,User,-,"How many inidividuals out of 100 would provide the second word in this pair as their immediate response to the first word? |Type your response on a scale from 0-100 and then press Enter.",Study/JOL,JAM_Rating,3453,,,2756,2817,,,,45,1
62aa591a476ebabe28612a92,ayej98gwix,"Mediated JOLs",1,22,2025-10-20T23:08:07+00:00,3.19500207901,1,JAM_stim.csv,JAM_proc.csv,JAM,JAM,HORNET,STING,Study1,F,130,59,JAM,User,-,"How many inidividuals out of 100 would provide the second word in this pair as their immediate response to the first word? |Type your response on a scale from 0-100 and then press Enter.",Study/JOL,JAM_Rating,2849,,,2160,2271,,,,80,1
62aa591a476ebabe28612a92,ayej98gwix,"Mediated JOLs",1,23,2025-10-20T23:08:11+00:00,3.919490814209,1,JAM_stim.csv,JAM_proc.csv,JAM,JAM,PUSH,CLUTTER,Study1,U,96,30,JAM,User,-,"How many inidividuals out of 100 would provide the second word in this pair as their immediate response to the first word? |Type your response on a scale from 0-100 and then press Enter.",Study/JOL,JAM_Rating,3576,,,3129,3129,,,,0,1
62aa591a476ebabe28612a92,ayej98gwix,"Mediated JOLs",1,24,2025-10-20T23:08:14+00:00,3.1359670162201,1,JAM_stim.csv,JAM_proc.csv,JAM,JAM,TUNA,FISH,Study1,F,120,16,JAM,User,-,"How many inidividuals out of 100 would provide the second word in this pair as their immediate response to the first word? |Type your response on a scale from 0-100 and then press Enter.",Study/JOL,JAM_Rating,2795,,,2024,2297,,,,80,1
62aa591a476ebabe28612a92,ayej98gwix,"Mediated JOLs",1,25,2025-10-20T23:09:17+00:00,63.47280216217,1,JAM_stim.csv,JAM_proc.csv,JAM,JAM,SUGAR,RIDDLE,Study1,U,95,35,JAM,User,-,"How many inidividuals out of 100 would provide the second word in this pair as their immediate response to the first word? |Type your response on a scale from 0-100 and then press Enter.",Study/JOL,JAM_Rating,62825,,,62604,62604,,,,0,1
62aa591a476ebabe28612a92,ayej98gwix,"Mediated JOLs",1,26,2025-10-20T23:09:47+00:00,30.214236974716,1,JAM_stim.csv,JAM_proc.csv,JAM,JAM,SICK,HIDE,Study1,U,100,77,JAM,User,-,"How many inidividuals out of 100 would provide the second word in this pair as their immediate response to the first word? |Type your response on a scale from 0-100 and then press Enter.",Study/JOL,JAM_Rating,29877,,,29524,29524,,,,0,0.054
62aa591a476ebabe28612a92,ayej98gwix,"Mediated JOLs",1,27,2025-10-20T23:13:42+00:00,234.85967087746,1,JAM_stim.csv,JAM_proc.csv,JAM,JAM,SUMMER,SNOW,Study1,M,61,44,JAM,User,-,"How many inidividuals out of 100 would provide the second word in this pair as their immediate response to the first word? |Type your response on a scale from 0-100 and then press Enter.",Study/JOL,JAM_Rating,234194,,,233375,233375,,,,0,0.017
62aa591a476ebabe28612a92,ayej98gwix,"Mediated JOLs",1,28,2025-10-20T23:13:46+00:00,3.3479261398315,1,JAM_stim.csv,JAM_proc.csv,JAM,JAM,AFFECTION,LOVE,Study1,F,116,76,JAM,User,-,"How many inidividuals out of 100 would provide the second word in this pair as their immediate response to the first word? |Type your response on a scale from 0-100 and then press Enter.",Study/JOL,JAM_Rating,2854,,,2265,2349,,,,90,1
62aa591a476ebabe28612a92,ayej98gwix,"Mediated JOLs",1,29,2025-10-20T23:13:48+00:00,2.303169965744,1,JAM_stim.csv,JAM_proc.csv,JAM,JAM,KEYS,ROD,Study1,U,45,48,JAM,User,-,"How many inidividuals out of 100 would provide the second word in this pair as their immediate response to the first word? |Type your response on a scale from 0-100 and then press Enter.",Study/JOL,JAM_Rating,1964,,,1573,1573,,,,0,1
62aa591a476ebabe28612a92,ayej98gwix,"Mediated JOLs",1,30,2025-10-20T23:13:51+00:00,2.9876079559326,1,JAM_stim.csv,JAM_proc.csv,JAM,JAM,SIP,DRINK,Study1,F,117,66,JAM,User,-,"How many inidividuals out of 100 would provide the second word in this pair as their immediate response to the first word? |Type your response on a scale from 0-100 and then press Enter.",Study/JOL,JAM_Rating,2644,,,2008,2172,,,,60,1
62aa591a476ebabe28612a92,ayej98gwix,"Mediated JOLs",1,31,2025-10-20T23:13:55+00:00,3.8339741230011,1,JAM_stim.csv,JAM_proc.csv,JAM,JAM,CHILL,COLD,Study1,F,132,72,JAM,User,-,"How many inidividuals out of 100 would provide the second word in this pair as their immediate response to the first word? |Type your response on a scale from 0-100 and then press Enter.",Study/JOL,JAM_Rating,3491,,,2861,2999,,,,70,1
62aa591a476ebabe28612a92,ayej98gwix,"Mediated JOLs",1,32,2025-10-20T23:13:58+00:00,2.8362078666687,1,JAM_stim.csv,JAM_proc.csv,JAM,JAM,HERD,COW,Study1,F,133,88,JAM,User,-,"How many inidividuals out of 100 would provide the second word in this pair as their immediate response to the first word? |Type your response on a scale from 0-100 and then press Enter.",Study/JOL,JAM_Rating,2491,,,1909,1991,,,,80,1
62aa591a476ebabe28612a92,ayej98gwix,"Mediated JOLs",1,33,2025-10-20T23:14:00+00:00,2.1743221282959,1,JAM_stim.csv,JAM_proc.csv,JAM,JAM,MAZE,PHONE,Study1,U,42,62,JAM,User,-,"How many inidividuals out of 100 would provide the second word in this pair as their immediate response to the first word? |Type your response on a scale from 0-100 and then press Enter.",Study/JOL,JAM_Rating,1833,,,1458,1458,,,,0,1
62aa591a476ebabe28612a92,ayej98gwix,"Mediated JOLs",1,34,2025-10-20T23:14:02+00:00,2.4892988204956,1,JAM_stim.csv,JAM_proc.csv,JAM,JAM,CHOP,CUT,Study1,F,122,70,JAM,User,-,"How many inidividuals out of 100 would provide the second word in this pair as their immediate response to the first word? |Type your response on a scale from 0-100 and then press Enter.",Study/JOL,JAM_Rating,2148,,,1760,1760,,,,0,1
62aa591a476ebabe28612a92,ayej98gwix,"Mediated JOLs",1,35,2025-10-20T23:14:04+00:00,1.8732931613922,1,JAM_stim.csv,JAM_proc.csv,JAM,JAM,CEILING,CARPET,Study1,M,15,54,JAM,User,-,"How many inidividuals out of 100 would provide the second word in this pair as their immediate response to the first word? |Type your response on a scale from 0-100 and then press Enter.",Study/JOL,JAM_Rating,1523,,,1307,1307,,,,0,1
62aa591a476ebabe28612a92,ayej98gwix,"Mediated JOLs",1,36,2025-10-20T23:14:09+00:00,4.7702310085297,1,JAM_stim.csv,JAM_proc.csv,JAM,JAM,CASH,STUDY,Study1,U,105,52,JAM,User,-,"How many inidividuals out of 100 would provide the second word in this pair as their immediate response to the first word? |Type your response on a scale from 0-100 and then press Enter.",Study/JOL,JAM_Rating,4428,,,3979,4016,,,,45,1
62aa591a476ebabe28612a92,ayej98gwix,"Mediated JOLs",1,37,2025-10-20T23:15:38+00:00,89.005635976791,1,JAM_stim.csv,JAM_proc.csv,JAM,JAM,VEHICLE,CHARM,Study1,U,40,36,JAM,User,-,"How many inidividuals out of 100 would provide the second word in this pair as their immediate response to the first word? |Type your response on a scale from 0-100 and then press Enter.",Study/JOL,JAM_Rating,88359,,,88300,88300,,,,0,1
62aa591a476ebabe28612a92,ayej98gwix,"Mediated JOLs",1,38,2025-10-20T23:15:40+00:00,1.858952999115,1,JAM_stim.csv,JAM_proc.csv,JAM,JAM,MEAT,KEYS,Study1,U,41,24,JAM,User,-,"How many inidividuals out of 100 would provide the second word in this pair as their immediate response to the first word? |Type your response on a scale from 0-100 and then press Enter.",Study/JOL,JAM_Rating,1515,,,1443,1443,,,,0,1
62aa591a476ebabe28612a92,ayej98gwix,"Mediated JOLs",1,39,2025-10-20T23:15:44+00:00,4.2761788368225,1,JAM_stim.csv,JAM_proc.csv,JAM,JAM,DIETARY,SACK,Study1,U,97,8,JAM,User,-,"How many inidividuals out of 100 would provide the second word in this pair as their immediate response to the first word? |Type your response on a scale from 0-100 and then press Enter.",Study/JOL,JAM_Rating,3933,,,3852,3852,,,,0,1
62aa591a476ebabe28612a92,ayej98gwix,"Mediated JOLs",1,40,2025-10-20T23:15:46+00:00,2.3209099769592,1,JAM_stim.csv,JAM_proc.csv,JAM,JAM,PANTS,COLLAR,Study1,M,63,25,JAM,User,-,"How many inidividuals out of 100 would provide the second word in this pair as their immediate response to the first word? |Type your response on a scale from 0-100 and then press Enter.",Study/JOL,JAM_Rating,1976,,,1787,1787,,,,5,1
62aa591a476ebabe28612a92,ayej98gwix,"Mediated JOLs",1,41,2025-10-20T23:15:49+00:00,2.3986790180206,1,JAM_stim.csv,JAM_proc.csv,JAM,JAM,ORCHID,FLOWER,Study1,F,119,73,JAM,User,-,"How many inidividuals out of 100 would provide the second word in this pair as their immediate response to the first word? |Type your response on a scale from 0-100 and then press Enter.",Study/JOL,JAM_Rating,2059,,,1869,1935,,,,25,1
62aa591a476ebabe28612a92,ayej98gwix,"Mediated JOLs",1,42,2025-10-20T23:15:58+00:00,9.398323059082,1,JAM_stim.csv,JAM_proc.csv,JAM,JAM,LEASE,TOIL,Study1,U,101,9,JAM,User,-,"How many inidividuals out of 100 would provide the second word in this pair as their immediate response to the first word? |Type your response on a scale from 0-100 and then press Enter.",Study/JOL,JAM_Rating,9054,,,8989,8989,,,,0,1
62aa591a476ebabe28612a92,ayej98gwix,"Mediated JOLs",1,43,2025-10-20T23:16:04+00:00,5.3963129520416,1,JAM_stim.csv,JAM_proc.csv,JAM,JAM,SOON,BELT,Study1,U,46,64,JAM,User,-,"How many inidividuals out of 100 would provide the second word in this pair as their immediate response to the first word? |Type your response on a scale from 0-100 and then press Enter.",Study/JOL,JAM_Rating,5051,,,4991,4991,,,,0,1
62aa591a476ebabe28612a92,ayej98gwix,"Mediated JOLs",1,44,2025-10-20T23:16:07+00:00,3.4731471538544,1,JAM_stim.csv,JAM_proc.csv,JAM,JAM,TOOTH,HAIR,Study1,M,19,56,JAM,User,-,"How many inidividuals out of 100 would provide the second word in this pair as their immediate response to the first word? |Type your response on a scale from 0-100 and then press Enter.",Study/JOL,JAM_Rating,3130,,,2927,3024,,,,15,1
62aa591a476ebabe28612a92,ayej98gwix,"Mediated JOLs",1,45,2025-10-20T23:16:18+00:00,10.491669893265,1,JAM_stim.csv,JAM_proc.csv,JAM,JAM,ROUGH,SILK,Study1,M,10,7,JAM,User,-,"How many inidividuals out of 100 would provide the second word in this pair as their immediate response to the first word? |Type your response on a scale from 0-100 and then press Enter.",Study/JOL,JAM_Rating,10150,,,9979,10045,,,,20,1
62aa591a476ebabe28612a92,ayej98gwix,"Mediated JOLs",1,46,2025-10-20T23:16:50+00:00,32.185226917267,1,JAM_stim.csv,JAM_proc.csv,JAM,JAM,NAP,SLEEP,Study1,F,114,85,JAM,User,-,"How many inidividuals out of 100 would provide the second word in this pair as their immediate response to the first word? |Type your response on a scale from 0-100 and then press Enter.",Study/JOL,JAM_Rating,31531,,,30834,30898,,,,90,0.58
62aa591a476ebabe28612a92,ayej98gwix,"Mediated JOLs",1,47,2025-10-20T23:16:53+00:00,3.6211071014404,1,JAM_stim.csv,JAM_proc.csv,JAM,JAM,KING,VASE,Study1,U,91,31,JAM,User,-,"How many inidividuals out of 100 would provide the second word in this pair as their immediate response to the first word? |Type your response on a scale from 0-100 and then press Enter.",Study/JOL,JAM_Rating,3284,,,2720,2788,,,,15,1
62aa591a476ebabe28612a92,ayej98gwix,"Mediated JOLs",1,48,2025-10-20T23:16:57+00:00,3.747132062912,1,JAM_stim.csv,JAM_proc.csv,JAM,JAM,HAPPY,CAR,Study1,U,92,13,JAM,User,-,"How many inidividuals out of 100 would provide the second word in this pair as their immediate response to the first word? |Type your response on a scale from 0-100 and then press Enter.",Study/JOL,JAM_Rating,3408,,,2310,2310,,,,0,1
62aa591a476ebabe28612a92,ayej98gwix,"Mediated JOLs",1,49,2025-10-20T23:17:14+00:00,16.460201978683,1,JAM_stim.csv,JAM_proc.csv,JAM,JAM,CACTUS,PLANT,Study1,F,121,40,JAM,User,-,"How many inidividuals out of 100 would provide the second word in this pair as their immediate response to the first word? |Type your response on a scale from 0-100 and then press Enter.",Study/JOL,JAM_Rating,16117,,,15356,15455,,,,80,0.407
62aa591a476ebabe28612a92,ayej98gwix,"Mediated JOLs",1,50,2025-10-20T23:17:19+00:00,5.9000270366669,1,JAM_stim.csv,JAM_proc.csv,JAM,JAM,CIRCLE,DANCE,Study1,M,13,34,JAM,User,-,"How many inidividuals out of 100 would provide the second word in this pair as their immediate response to the first word? |Type your response on a scale from 0-100 and then press Enter.",Study/JOL,JAM_Rating,5551,,,4733,4768,,,,10,1
62aa591a476ebabe28612a92,ayej98gwix,"Mediated JOLs",1,51,2025-10-20T23:17:22+00:00,2.7240998744965,1,JAM_stim.csv,JAM_proc.csv,JAM,JAM,MIRROR,CHILDREN,Study1,U,104,90,JAM,User,-,"How many inidividuals out of 100 would provide the second word in this pair as their immediate response to the first word? |Type your response on a scale from 0-100 and then press Enter.",Study/JOL,JAM_Rating,2377,,,1894,1894,,,,5,1
62aa591a476ebabe28612a92,ayej98gwix,"Mediated JOLs",1,52,2025-10-20T23:17:26+00:00,3.9859199523926,1,JAM_stim.csv,JAM_proc.csv,JAM,JAM,CHERRY,RED,Study1,F,125,28,JAM,User,-,"How many inidividuals out of 100 would provide the second word in this pair as their immediate response to the first word? |Type your response on a scale from 0-100 and then press Enter.",Study/JOL,JAM_Rating,3640,,,2052,3198,,,,85,1
62aa591a476ebabe28612a92,ayej98gwix,"Mediated JOLs",1,53,2025-10-20T23:19:14+00:00,107.51730108261,1,JAM_stim.csv,JAM_proc.csv,JAM,JAM,STRONG,ACCIDENT,Study1,U,94,23,JAM,User,-,"How many inidividuals out of 100 would provide the second word in this pair as their immediate response to the first word? |Type your response on a scale from 0-100 and then press Enter.",Study/JOL,JAM_Rating,106860,,,106601,106601,,,,5,0.045
62aa591a476ebabe28612a92,ayej98gwix,"Mediated JOLs",1,54,2025-10-20T23:19:16+00:00,1.8530290126801,1,JAM_stim.csv,JAM_proc.csv,JAM,JAM,WINDOW,KNOB,Study1,M,74,19,JAM,User,-,"How many inidividuals out of 100 would provide the second word in this pair as their immediate response to the first word? |Type your response on a scale from 0-100 and then press Enter.",Study/JOL,JAM_Rating,1515,,,1148,1148,,,,0,1
62aa591a476ebabe28612a92,ayej98gwix,"Mediated JOLs",1,55,2025-10-20T23:19:19+00:00,3.1079020500183,1,JAM_stim.csv,JAM_proc.csv,JAM,JAM,VALLEY,PEAK,Study1,M,73,81,JAM,User,-,"How many inidividuals out of 100 would provide the second word in this pair as their immediate response to the first word? |Type your response on a scale from 0-100 and then press Enter.",Study/JOL,JAM_Rating,2766,,,2114,2267,,,,40,1
62aa591a476ebabe28612a92,ayej98gwix,"Mediated JOLs",1,56,2025-10-20T23:19:28+00:00,9.6492929458618,1,JAM_stim.csv,JAM_proc.csv,JAM,JAM,LEAGUE,BASEBALL,Study1,F,129,57,JAM,User,-,"How many inidividuals out of 100 would provide the second word in this pair as their immediate response to the first word? |Type your response on a scale from 0-100 and then press Enter.",Study/JOL,JAM_Rating,9308,,,8818,8910,,,,90,0.548
62aa591a476ebabe28612a92,ayej98gwix,"Mediated JOLs",1,57,2025-10-20T23:19:31+00:00,2.4092860221863,1,JAM_stim.csv,JAM_proc.csv,JAM,JAM,CHISEL,HAMMER,Study1,F,123,69,JAM,User,-,"How many inidividuals out of 100 would provide the second word in this pair as their immediate response to the first word? |Type your response on a scale from 0-100 and then press Enter.",Study/JOL,JAM_Rating,2069,,,1708,1809,,,,50,1
62aa591a476ebabe28612a92,ayej98gwix,"Mediated JOLs",1,58,2025-10-20T23:19:34+00:00,2.8710799217224,1,JAM_stim.csv,JAM_proc.csv,JAM,JAM,PILL,BOTTLE,Study1,F,115,75,JAM,User,-,"How many inidividuals out of 100 would provide the second word in this pair as their immediate response to the first word? |Type your response on a scale from 0-100 and then press Enter.",Study/JOL,JAM_Rating,2532,,,2012,2075,,,,60,1
62aa591a476ebabe28612a92,ayej98gwix,"Mediated JOLs",1,59,2025-10-20T23:19:38+00:00,4.4628820419312,1,JAM_stim.csv,JAM_proc.csv,JAM,JAM,HYGIENE,CLEAN,Study1,F,113,15,JAM,User,-,"How many inidividuals out of 100 would provide the second word in this pair as their immediate response to the first word? |Type your response on a scale from 0-100 and then press Enter.",Study/JOL,JAM_Rating,4108,,,3560,3809,,,,100,1
62aa591a476ebabe28612a92,ayej98gwix,"Mediated JOLs",1,60,2025-10-20T23:19:42+00:00,3.6948919296265,1,JAM_stim.csv,JAM_proc.csv,JAM,JAM,SWAN,BIRD,Study1,F,111,27,JAM,User,-,"How many inidividuals out of 100 would provide the second word in this pair as their immediate response to the first word? |Type your response on a scale from 0-100 and then press Enter.",Study/JOL,JAM_Rating,3339,,,2815,2919,,,,50,1
62aa591a476ebabe28612a92,ayej98gwix,"Mediated JOLs",1,61,2025-10-20T23:19:45+00:00,3.3041231632233,1,JAM_stim.csv,JAM_proc.csv,JAM,JAM,DOCUMENT,PAPER,Study1,F,127,82,JAM,User,-,"How many inidividuals out of 100 would provide the second word in this pair as their immediate response to the first word? |Type your response on a scale from 0-100 and then press Enter.",Study/JOL,JAM_Rating,2954,,,2415,2514,,,,40,1
62aa591a476ebabe28612a92,ayej98gwix,"Mediated JOLs",1,62,2025-10-20T23:19:48+00:00,3.0027978420258,1,JAM_stim.csv,JAM_proc.csv,JAM,JAM,ATTIRE,CLOTHES,Study1,F,124,10,JAM,User,-,"How many inidividuals out of 100 would provide the second word in this pair as their immediate response to the first word? |Type your response on a scale from 0-100 and then press Enter.",Study/JOL,JAM_Rating,2651,,,2071,2204,,,,90,1
62aa591a476ebabe28612a92,ayej98gwix,"Mediated JOLs",1,63,2025-10-20T23:19:50+00:00,1.8931570053101,1,JAM_stim.csv,JAM_proc.csv,JAM,JAM,EYES,SMELL,Study1,M,65,26,JAM,User,-,"How many inidividuals out of 100 would provide the second word in this pair as their immediate response to the first word? |Type your response on a scale from 0-100 and then press Enter.",Study/JOL,JAM_Rating,1547,,,1207,1207,,,,0,1
62aa591a476ebabe28612a92,ayej98gwix,"Mediated JOLs",1,64,2025-10-20T23:19:52+00:00,2.4063711166382,1,JAM_stim.csv,JAM_proc.csv,JAM,JAM,TEMPERATURE,MORNING,Study1,U,48,46,JAM,User,-,"How many inidividuals out of 100 would provide the second word in this pair as their immediate response to the first word? |Type your response on a scale from 0-100 and then press Enter.",Study/JOL,JAM_Rating,2061,,,1744,1799,,,,15,1
62aa591a476ebabe28612a92,ayej98gwix,"Mediated JOLs",1,65,2025-10-20T23:19:55+00:00,2.7238938808441,1,JAM_stim.csv,JAM_proc.csv,JAM,JAM,LISTEN,FICTION,Study1,U,44,50,JAM,User,-,"How many inidividuals out of 100 would provide the second word in this pair as their immediate response to the first word? |Type your response on a scale from 0-100 and then press Enter.",Study/JOL,JAM_Rating,2381,,,1928,1986,,,,10,1
62aa591a476ebabe28612a92,ayej98gwix,"Mediated JOLs",1,66,2025-10-20T23:19:57+00:00,2.0081050395966,1,JAM_stim.csv,JAM_proc.csv,JAM,JAM,OVEN,BASKET,Study1,M,71,43,JAM,User,-,"How many inidividuals out of 100 would provide the second word in this pair as their immediate response to the first word? |Type your response on a scale from 0-100 and then press Enter.",Study/JOL,JAM_Rating,1661,,,1097,1274,,,,50,1
62aa591a476ebabe28612a92,ayej98gwix,"Mediated JOLs",1,67,2025-10-20T23:20:00+00:00,2.9509589672089,1,JAM_stim.csv,JAM_proc.csv,JAM,JAM,SIGN,TICK,Study1,U,47,21,JAM,User,-,"How many inidividuals out of 100 would provide the second word in this pair as their immediate response to the first word? |Type your response on a scale from 0-100 and then press Enter.",Study/JOL,JAM_Rating,2598,,,2325,2360,,,,20,1
62aa591a476ebabe28612a92,ayej98gwix,"Mediated JOLs",1,68,2025-10-20T23:20:04+00:00,3.5217339992523,1,JAM_stim.csv,JAM_proc.csv,JAM,JAM,BRIDGE,WATER,Study1,F,135,71,JAM,User,-,"How many inidividuals out of 100 would provide the second word in this pair as their immediate response to the first word? |Type your response on a scale from 0-100 and then press Enter.",Study/JOL,JAM_Rating,3180,,,2413,2675,,,,95,1
62aa591a476ebabe28612a92,ayej98gwix,"Mediated JOLs",1,69,2025-10-20T23:20:06+00:00,2.3331670761108,1,JAM_stim.csv,JAM_proc.csv,JAM,JAM,DAY,DARK,Study1,M,18,22,JAM,User,-,"How many inidividuals out of 100 would provide the second word in this pair as their immediate response to the first word? |Type your response on a scale from 0-100 and then press Enter.",Study/JOL,JAM_Rating,1979,,,1557,1557,,,,0,1
62aa591a476ebabe28612a92,ayej98gwix,"Mediated JOLs",1,70,2025-10-20T23:20:07+00:00,1.4250419139862,1,JAM_stim.csv,JAM_proc.csv,JAM,JAM,HEAVY,FEATHER,Study1,M,68,17,JAM,User,-,"How many inidividuals out of 100 would provide the second word in this pair as their immediate response to the first word? |Type your response on a scale from 0-100 and then press Enter.",Study/JOL,JAM_Rating,1077,,,861,861,,,,0,1
62aa591a476ebabe28612a92,ayej98gwix,"Mediated JOLs",1,71,2025-10-20T23:20:10+00:00,2.2702860832214,1,JAM_stim.csv,JAM_proc.csv,JAM,JAM,CREDIT,CARD,Study1,F,118,67,JAM,User,-,"How many inidividuals out of 100 would provide the second word in this pair as their immediate response to the first word? |Type your response on a scale from 0-100 and then press Enter.",Study/JOL,JAM_Rating,1924,,,1298,1622,,,,100,1
62aa591a476ebabe28612a92,ayej98gwix,"Mediated JOLs",1,72,2025-10-20T23:20:11+00:00,1.8158900737762,1,JAM_stim.csv,JAM_proc.csv,JAM,JAM,HARD,COTTON,Study1,M,20,39,JAM,User,-,"How many inidividuals out of 100 would provide the second word in this pair as their immediate response to the first word? |Type your response on a scale from 0-100 and then press Enter.",Study/JOL,JAM_Rating,1474,,,1025,1025,,,,0,1
62aa591a476ebabe28612a92,ayej98gwix,"Mediated JOLs",1,73,2025-10-20T23:20:14+00:00,2.5552370548248,1,JAM_stim.csv,JAM_proc.csv,JAM,JAM,MULE,DONKEY,Study1,F,109,61,JAM,User,-,"How many inidividuals out of 100 would provide the second word in this pair as their immediate response to the first word? |Type your response on a scale from 0-100 and then press Enter.",Study/JOL,JAM_Rating,2213,,,1621,1930,,,,100,1
62aa591a476ebabe28612a92,ayej98gwix,"Mediated JOLs",1,74,2025-10-20T23:20:17+00:00,2.9116477966309,1,JAM_stim.csv,JAM_proc.csv,JAM,JAM,STRETCH,CLOTH,Study1,U,37,33,JAM,User,-,"How many inidividuals out of 100 would provide the second word in this pair as their immediate response to the first word? |Type your response on a scale from 0-100 and then press Enter.",Study/JOL,JAM_Rating,2569,,,2069,2159,,,,80,1
62aa591a476ebabe28612a92,ayej98gwix,"Mediated JOLs",1,75,2025-10-20T23:20:19+00:00,1.7940361499786,1,JAM_stim.csv,JAM_proc.csv,JAM,JAM,CRACKLE,ELECTION,Study1,U,39,63,JAM,User,-,"How many inidividuals out of 100 would provide the second word in this pair as their immediate response to the first word? |Type your response on a scale from 0-100 and then press Enter.",Study/JOL,JAM_Rating,1449,,,1056,1056,,,,0,1
62aa591a476ebabe28612a92,ayej98gwix,"Mediated JOLs",1,76,2025-10-20T23:20:21+00:00,2.1029698848724,1,JAM_stim.csv,JAM_proc.csv,JAM,JAM,LITTER,TRASH,Study1,F,106,53,JAM,User,-,"How many inidividuals out of 100 would provide the second word in this pair as their immediate response to the first word? |Type your response on a scale from 0-100 and then press Enter.",Study/JOL,JAM_Rating,1754,,,1191,1499,,,,100,1
62aa591a476ebabe28612a92,ayej98gwix,"Mediated JOLs",1,77,2025-10-20T23:20:23+00:00,1.8417680263519,1,JAM_stim.csv,JAM_proc.csv,JAM,JAM,ROOT,PLANT,Study1,F,110,93,JAM,User,-,"How many inidividuals out of 100 would provide the second word in this pair as their immediate response to the first word? |Type your response on a scale from 0-100 and then press Enter.",Study/JOL,JAM_Rating,1494,,,958,1232,,,,100,1
62aa591a476ebabe28612a92,ayej98gwix,"Mediated JOLs",1,78,2025-10-20T23:20:33+00:00,10.239607095718,1,JAM_stim.csv,JAM_proc.csv,JAM,JAM,BEACH,BOX,Study1,M,7,79,JAM,User,-,"How many inidividuals out of 100 would provide the second word in this pair as their immediate response to the first word? |Type your response on a scale from 0-100 and then press Enter.",Study/JOL,JAM_Rating,9896,,,9483,9483,,,,0,1
62aa591a476ebabe28612a92,ayej98gwix,"Mediated JOLs",1,79,2025-10-20T23:20:35+00:00,2.2230088710785,1,JAM_stim.csv,JAM_proc.csv,JAM,JAM,LION,STRIPES,Study1,M,6,91,JAM,User,-,"How many inidividuals out of 100 would provide the second word in this pair as their immediate response to the first word? |Type your response on a scale from 0-100 and then press Enter.",Study/JOL,JAM_Rating,1878,,,1463,1463,,,,0,1
62aa591a476ebabe28612a92,ayej98gwix,"Mediated JOLs",1,80,2025-10-20T23:21:06+00:00,31.12797498703,1,JAM_stim.csv,JAM_proc.csv,JAM,JAM,NURSE,LAWYER,Study1,M,66,68,JAM,User,-,"How many inidividuals out of 100 would provide the second word in this pair as their immediate response to the first word? |Type your response on a scale from 0-100 and then press Enter.",Study/JOL,JAM_Rating,30466,,,30396,30396,,,,0,1
62aa591a476ebabe28612a92,ayej98gwix,"Mediated JOLs",1,81,2025-10-20T23:21:20+00:00,14.262214183807,1,JAM_stim.csv,JAM_proc.csv,JAM,JAM,FEUD,FIGHT,Study1,F,131,86,JAM,User,-,"How many inidividuals out of 100 would provide the second word in this pair as their immediate response to the first word? |Type your response on a scale from 0-100 and then press Enter.",Study/JOL,JAM_Rating,13903,,,13523,13611,,,,80,1
62aa591a476ebabe28612a92,ayej98gwix,"Mediated JOLs",1,82,2025-10-20T23:21:23+00:00,2.3711619377136,1,JAM_stim.csv,JAM_proc.csv,JAM,JAM,SHELL,SHAKE,Study1,U,43,12,JAM,User,-,"How many inidividuals out of 100 would provide the second word in this pair as their immediate response to the first word? |Type your response on a scale from 0-100 and then press Enter.",Study/JOL,JAM_Rating,2033,,,1437,1437,,,,0,1
62aa591a476ebabe28612a92,ayej98gwix,"Mediated JOLs",1,83,2025-10-20T23:21:24+00:00,1.4946630001068,1,JAM_stim.csv,JAM_proc.csv,JAM,JAM,BAT,BOUNCE,Study1,M,12,65,JAM,User,-,"How many inidividuals out of 100 would provide the second word in this pair as their immediate response to the first word? |Type your response on a scale from 0-100 and then press Enter.",Study/JOL,JAM_Rating,1145,,,1043,1043,,,,0,1
62aa591a476ebabe28612a92,ayej98gwix,"Mediated JOLs",1,84,2025-10-20T23:21:27+00:00,3.0291969776154,1,JAM_stim.csv,JAM_proc.csv,JAM,JAM,RAZOR,MUSCLE,Study1,M,75,49,JAM,User,-,"How many inidividuals out of 100 would provide the second word in this pair as their immediate response to the first word? |Type your response on a scale from 0-100 and then press Enter.",Study/JOL,JAM_Rating,2684,,,2460,2525,,,,25,1
62aa591a476ebabe28612a92,ayej98gwix,"Mediated JOLs",1,85,2025-10-20T23:21:29+00:00,1.4932129383087,1,JAM_stim.csv,JAM_proc.csv,JAM,JAM,SOAP,DRINK,Study1,M,67,32,JAM,User,-,"How many inidividuals out of 100 would provide the second word in this pair as their immediate response to the first word? |Type your response on a scale from 0-100 and then press Enter.",Study/JOL,JAM_Rating,1149,,,1069,1069,,,,0,1
62aa591a476ebabe28612a92,ayej98gwix,"Mediated JOLs",1,86,2025-10-20T23:21:30+00:00,1.2904410362244,1,JAM_stim.csv,JAM_proc.csv,JAM,JAM,FUZZY,BANG,Study1,U,50,55,JAM,User,-,"How many inidividuals out of 100 would provide the second word in this pair as their immediate response to the first word? |Type your response on a scale from 0-100 and then press Enter.",Study/JOL,JAM_Rating,951,,,881,881,,,,0,1
62aa591a476ebabe28612a92,ayej98gwix,"Mediated JOLs",1,87,2025-10-20T23:21:33+00:00,2.3983581066132,1,JAM_stim.csv,JAM_proc.csv,JAM,JAM,BLAZE,FIRE,Study1,F,126,51,JAM,User,-,"How many inidividuals out of 100 would provide the second word in this pair as their immediate response to the first word? |Type your response on a scale from 0-100 and then press Enter.",Study/JOL,JAM_Rating,2055,,,1927,1930,,,,80,1
62aa591a476ebabe28612a92,ayej98gwix,"Mediated JOLs",1,88,2025-10-20T23:21:35+00:00,2.2396619319916,1,JAM_stim.csv,JAM_proc.csv,JAM,JAM,WAGE,MONEY,Study1,F,107,18,JAM,User,-,"How many inidividuals out of 100 would provide the second word in this pair as their immediate response to the first word? |Type your response on a scale from 0-100 and then press Enter.",Study/JOL,JAM_Rating,1893,,,1306,1675,,,,100,1
62aa591a476ebabe28612a92,ayej98gwix,"Mediated JOLs",1,89,2025-10-20T23:21:36+00:00,1.3371849060059,1,JAM_stim.csv,JAM_proc.csv,JAM,JAM,DEATH,BUSINESS,Study1,U,99,60,JAM,User,-,"How many inidividuals out of 100 would provide the second word in this pair as their immediate response to the first word? |Type your response on a scale from 0-100 and then press Enter.",Study/JOL,JAM_Rating,990,,,922,922,,,,0,1
62aa591a476ebabe28612a92,ayej98gwix,"Mediated JOLs",1,90,2025-10-20T23:21:38+00:00,1.3816921710968,1,JAM_stim.csv,JAM_proc.csv,JAM,JAM,WAR,QUIET,Study1,M,8,84,JAM,User,-,"How many inidividuals out of 100 would provide the second word in this pair as their immediate response to the first word? |Type your response on a scale from 0-100 and then press Enter.",Study/JOL,JAM_Rating,1036,,,970,970,,,,0,1
62aa591a476ebabe28612a92,ayej98gwix,"Mediated JOLs",1,91,2025-10-20T23:21:40+00:00,2.8872938156128,1,JAM_stim.csv,JAM_proc.csv,JAM,JAM,WASP,BUG,Study1,F,134,20,JAM,User,-,"How many inidividuals out of 100 would provide the second word in this pair as their immediate response to the first word? |Type your response on a scale from 0-100 and then press Enter.",Study/JOL,JAM_Rating,2546,,,2385,2433,,,,45,1
62aa591a476ebabe28612a92,ayej98gwix,"Mediated JOLs",1,92,2025-10-20T23:21:43+00:00,2.5293250083923,1,JAM_stim.csv,JAM_proc.csv,JAM,JAM,INCENSE,SMELL,Study1,F,128,58,JAM,User,-,"How many inidividuals out of 100 would provide the second word in this pair as their immediate response to the first word? |Type your response on a scale from 0-100 and then press Enter.",Study/JOL,JAM_Rating,2182,,,1974,2066,,,,90,1
62aa591a476ebabe28612a92,ayej98gwix,"Mediated JOLs",1,93,2025-10-20T23:21:45+00:00,2.2104330062866,1,JAM_stim.csv,JAM_proc.csv,JAM,JAM,REALITY,ISLAND,Study1,M,64,38,JAM,User,-,"How many inidividuals out of 100 would provide the second word in this pair as their immediate response to the first word? |Type your response on a scale from 0-100 and then press Enter.",Study/JOL,JAM_Rating,1864,,,1797,1797,,,,0,1
62aa591a476ebabe28612a92,ayej98gwix,"Mediated JOLs",1,94,2025-10-20T23:21:47+00:00,1.3574941158295,1,JAM_stim.csv,JAM_proc.csv,JAM,JAM,CAKE,HAND,Study1,U,49,37,JAM,User,-,"How many inidividuals out of 100 would provide the second word in this pair as their immediate response to the first word? |Type your response on a scale from 0-100 and then press Enter.",Study/JOL,JAM_Rating,1006,,,947,947,,,,0,1
62aa591a476ebabe28612a92,ayej98gwix,"Mediated JOLs",1,95,2025-10-20T23:21:48+00:00,1.8991830348969,1,JAM_stim.csv,JAM_proc.csv,JAM,JAM,TREE,SYRUP,Study1,M,11,92,JAM,User,-,"How many inidividuals out of 100 would provide the second word in this pair as their immediate response to the first word? |Type your response on a scale from 0-100 and then press Enter.",Study/JOL,JAM_Rating,1556,,,1437,1478,,,,50,1
62aa591a476ebabe28612a92,ayej98gwix,"Mediated JOLs",1,96,2025-10-20T23:21:50+00:00,1.5098338127136,1,JAM_stim.csv,JAM_proc.csv,JAM,JAM,CRY,BOTTLE,Study1,M,16,45,JAM,User,-,"How many inidividuals out of 100 would provide the second word in this pair as their immediate response to the first word? |Type your response on a scale from 0-100 and then press Enter.",Study/JOL,JAM_Rating,1168,,,1105,1105,,,,0,1
62aa591a476ebabe28612a92,ayej98gwix,"Mediated JOLs",1,97,2025-10-20T23:21:53+00:00,2.8026821613312,1,JAM_stim.csv,JAM_proc.csv,JAM,JAM,RAKE,SEED,Study1,M,69,42,JAM,User,-,"How many inidividuals out of 100 would provide the second word in this pair as their immediate response to the first word? |Type your response on a scale from 0-100 and then press Enter.",Study/JOL,JAM_Rating,2455,,,1491,2343,,,,25,1
62aa591a476ebabe28612a92,ayej98gwix,"Mediated JOLs",1,98,2025-10-20T23:21:54+00:00,1.3307678699493,1,JAM_stim.csv,JAM_proc.csv,JAM,JAM,GIVE,STEAK,Study1,U,38,47,JAM,User,-,"How many inidividuals out of 100 would provide the second word in this pair as their immediate response to the first word? |Type your response on a scale from 0-100 and then press Enter.",Study/JOL,JAM_Rating,985,,,859,859,,,,0,1
62aa591a476ebabe28612a92,ayej98gwix,"Mediated JOLs",1,99,2025-10-20T23:21:56+00:00,2.1315660476685,1,JAM_stim.csv,JAM_proc.csv,JAM,JAM,TRAP,CAVE,Study1,M,70,29,JAM,User,-,"How many inidividuals out of 100 would provide the second word in this pair as their immediate response to the first word? |Type your response on a scale from 0-100 and then press Enter.",Study/JOL,JAM_Rating,1792,,,1651,1728,,,,80,1
62aa591a476ebabe28612a92,ayej98gwix,"Mediated JOLs",1,100,2025-10-20T23:22:00+00:00,4.1999521255493,1,JAM_stim.csv,JAM_proc.csv,JAM,JAM,BIRTHDAY,PIE,Study1,M,9,94,JAM,User,-,"How many inidividuals out of 100 would provide the second word in this pair as their immediate response to the first word? |Type your response on a scale from 0-100 and then press Enter.",Study/JOL,JAM_Rating,3859,,,3771,3771,,,,0,1
62aa591a476ebabe28612a92,ayej98gwix,"Mediated JOLs",1,101,2025-10-20T23:22:03+00:00,2.5021607875824,1,JAM_stim.csv,JAM_proc.csv,JAM,JAM,ARTERY,BRONZE,Study1,U,103,96,JAM,User,-,"How many inidividuals out of 100 would provide the second word in this pair as their immediate response to the first word? |Type your response on a scale from 0-100 and then press Enter.",Study/JOL,JAM_Rating,2161,,,2056,2103,,,,50,1
62aa591a476ebabe28612a92,ayej98gwix,"Mediated JOLs",1,102,2025-10-20T23:22:06+00:00,2.9687070846558,1,JAM_stim.csv,JAM_proc.csv,JAM,JAM,,,,,,0,Instruct,User,-,"You have completed this section. Please press Enter.",,Instruct7,2630,,,-1,-1,,,,,1
62aa591a476ebabe28612a92,ayej98gwix,"Mediated JOLs",1,103,2025-10-20T23:22:08+00:00,2.380420923233,1,JAM_stim.csv,JAM_proc.csv,JAM,JAM,,,,,,0,Instruct,User,-,"The following screen will ask you a few questions abour your experience today. You must complete these questions to receive credit.",,Instruct8,2027,,,-1,-1,,,,,1
