Username,ID,ExperimentName,Session,Trial,Date,TimeDif,"Condition Number","Stimuli File","Order File","Condition Description","Condition Notes",Stimuli*Cue,Stimuli*Answer,Stimuli*Shuffle,"Stimuli*Stimuli Notes",Stimuli*Value,Procedure*Item,"Procedure*Trial Type","Procedure*Max Time","Procedure*Min Time",Procedure*Text,"Procedure*Procedure Notes",Procedure*Shuffle,Response*RT,Response*Response,Response*Accuracy,Response*RTfirst,Response*RTlast,Response*strictAcc,Response*lenientAcc,Response*focus,Response*JOL,Response*Focus
609a3eb31cacec1cad4b9448,2gdg38mr0u,"Mediated JOLs",1,1,2025-10-20T23:03:50+00:00,35.366973161697,1,JAM_stim.csv,JAM_proc.csv,JAM,JAM,,,,,,0,Instruct,-,5,"In this section, you will be presented with a series of word pairs. We are interested in how related you perceive the words in each pair to be.",Initial_Instruct,Instruct1,34843,,,-1,-1,,,,,1
609a3eb31cacec1cad4b9448,2gdg38mr0u,"Mediated JOLs",1,2,2025-10-20T23:05:52+00:00,121.21794199944,1,JAM_stim.csv,JAM_proc.csv,JAM,JAM,,,,,,0,Instruct,-,5,"Specifically, you will be asked to rate how often the words in each pair are used together. Assume 100 college students from around the nation gave responses to each CUE (first) word. How many of these 100 students do you think would have given the RESPONSE (second) word?",,Instruct13,120495,,,-1,-1,,,,,1
609a3eb31cacec1cad4b9448,2gdg38mr0u,"Mediated JOLs",1,3,2025-10-20T23:07:08+00:00,76.351348876953,1,JAM_stim.csv,JAM_proc.csv,JAM,JAM,,,,,,0,Instruct,-,5,"For example, if you are given the pair CAT - DOG, a rating of 0 indicates that DOG is not a commonly given response to the word CAT, while a score of 100 indicates that DOG would be a common response.",,Instruct14,75833,,,-1,-1,,,,,1
609a3eb31cacec1cad4b9448,2gdg38mr0u,"Mediated JOLs",1,4,2025-10-20T23:07:17+00:00,9.0652661323547,1,JAM_stim.csv,JAM_proc.csv,JAM,JAM,,,,,,0,Instruct,-,5,"When making your ratings, it is criticial that you use the full range of the scale. You will be disqualified for only giving ratings of 0 or 100! After making your rating, you will press Enter to advance to the next pair.",,Instruct15,8665,,,-1,-1,,,,,1
609a3eb31cacec1cad4b9448,2gdg38mr0u,"Mediated JOLs",1,5,2025-10-20T23:07:19+00:00,2.0814318656921,1,JAM_stim.csv,JAM_proc.csv,JAM,JAM,,,,,,0,Instruct,User,-,"Before starting the study, you will complete a short practice session to get familiar with the judgment task. Press Enter when you are ready to begin.",,Instruct16,1695,,,-1,-1,,,,,1
609a3eb31cacec1cad4b9448,2gdg38mr0u,"Mediated JOLs",1,6,2025-10-20T23:07:35+00:00,15.748103141785,1,JAM_stim.csv,JAM_proc.csv,JAM,JAM,TREES,GREEN,Practice,Practice,1,5,JAM,User,-,"How many inidividuals out of 100 would provide the second word in this pair as their immediate response to the first word? |Type your response on a scale from 0-100 and then press Enter.",Study/JOL,Practice,15166,,,10687,12293,,,,65,1
609a3eb31cacec1cad4b9448,2gdg38mr0u,"Mediated JOLs",1,7,2025-10-20T23:07:44+00:00,9.6327769756317,1,JAM_stim.csv,JAM_proc.csv,JAM,JAM,SCARE,FRIGHT,Practice,Practice,4,4,JAM,User,-,"How many inidividuals out of 100 would provide the second word in this pair as their immediate response to the first word? |Type your response on a scale from 0-100 and then press Enter.",Study/JOL,Practice,9171,,,4530,6158,,,,82,1
609a3eb31cacec1cad4b9448,2gdg38mr0u,"Mediated JOLs",1,8,2025-10-20T23:07:53+00:00,8.502748966217,1,JAM_stim.csv,JAM_proc.csv,JAM,JAM,PITCHER,CATCHER,Practice,Practice,2,6,JAM,User,-,"How many inidividuals out of 100 would provide the second word in this pair as their immediate response to the first word? |Type your response on a scale from 0-100 and then press Enter.",Study/JOL,Practice,8066,,,3868,6809,,,,46,1
609a3eb31cacec1cad4b9448,2gdg38mr0u,"Mediated JOLs",1,9,2025-10-20T23:07:59+00:00,6.0275890827179,1,JAM_stim.csv,JAM_proc.csv,JAM,JAM,PEANUT,BUTTER,Practice,Practice,3,2,JAM,User,-,"How many inidividuals out of 100 would provide the second word in this pair as their immediate response to the first word? |Type your response on a scale from 0-100 and then press Enter.",Study/JOL,Practice,5649,,,3743,4429,,,,95,1
609a3eb31cacec1cad4b9448,2gdg38mr0u,"Mediated JOLs",1,10,2025-10-20T23:08:05+00:00,5.7847290039062,1,JAM_stim.csv,JAM_proc.csv,JAM,JAM,SPACE,JAM,Practice,Practice,5,3,JAM,User,-,"How many inidividuals out of 100 would provide the second word in this pair as their immediate response to the first word? |Type your response on a scale from 0-100 and then press Enter.",Study/JOL,Practice,5398,,,3858,4412,,,,40,1
609a3eb31cacec1cad4b9448,2gdg38mr0u,"Mediated JOLs",1,11,2025-10-20T23:08:07+00:00,2.5967810153961,1,JAM_stim.csv,JAM_proc.csv,JAM,JAM,,,,,,0,Instruct,User,-,"You will now begin the study. Press Enter when you are ready to begin.",,Instruct_Full_task,2225,,,-1,-1,,,,,1
609a3eb31cacec1cad4b9448,2gdg38mr0u,"Mediated JOLs",1,12,2025-10-20T23:08:14+00:00,7.0298399925232,1,JAM_stim.csv,JAM_proc.csv,JAM,JAM,SUGAR,RIDDLE,Study1,U,95,74,JAM,User,-,"How many inidividuals out of 100 would provide the second word in this pair as their immediate response to the first word? |Type your response on a scale from 0-100 and then press Enter.",Study/JOL,JAM_Rating,6634,,,2770,5301,,,,1,1
609a3eb31cacec1cad4b9448,2gdg38mr0u,"Mediated JOLs",1,13,2025-10-20T23:08:19+00:00,4.3338959217072,1,JAM_stim.csv,JAM_proc.csv,JAM,JAM,WEDDING,FINGER,Study1,M,17,41,JAM,User,-,"How many inidividuals out of 100 would provide the second word in this pair as their immediate response to the first word? |Type your response on a scale from 0-100 and then press Enter.",Study/JOL,JAM_Rating,3977,,,2350,2897,,,,60,1
609a3eb31cacec1cad4b9448,2gdg38mr0u,"Mediated JOLs",1,14,2025-10-20T23:08:26+00:00,7.308315038681,1,JAM_stim.csv,JAM_proc.csv,JAM,JAM,WAR,QUIET,Study1,M,8,82,JAM,User,-,"How many inidividuals out of 100 would provide the second word in this pair as their immediate response to the first word? |Type your response on a scale from 0-100 and then press Enter.",Study/JOL,JAM_Rating,6903,,,2404,2404,,,,0,1
609a3eb31cacec1cad4b9448,2gdg38mr0u,"Mediated JOLs",1,15,2025-10-20T23:08:31+00:00,4.6424720287323,1,JAM_stim.csv,JAM_proc.csv,JAM,JAM,HORNET,STING,Study1,F,130,17,JAM,User,-,"How many inidividuals out of 100 would provide the second word in this pair as their immediate response to the first word? |Type your response on a scale from 0-100 and then press Enter.",Study/JOL,JAM_Rating,4270,,,2136,2530,,,,70,1
609a3eb31cacec1cad4b9448,2gdg38mr0u,"Mediated JOLs",1,16,2025-10-20T23:08:35+00:00,4.8185148239136,1,JAM_stim.csv,JAM_proc.csv,JAM,JAM,TRAP,CAVE,Study1,M,70,9,JAM,User,-,"How many inidividuals out of 100 would provide the second word in this pair as their immediate response to the first word? |Type your response on a scale from 0-100 and then press Enter.",Study/JOL,JAM_Rating,4414,,,2417,3346,,,,25,1
609a3eb31cacec1cad4b9448,2gdg38mr0u,"Mediated JOLs",1,17,2025-10-20T23:08:39+00:00,3.5617370605469,1,JAM_stim.csv,JAM_proc.csv,JAM,JAM,VALLEY,PEAK,Study1,M,73,16,JAM,User,-,"How many inidividuals out of 100 would provide the second word in this pair as their immediate response to the first word? |Type your response on a scale from 0-100 and then press Enter.",Study/JOL,JAM_Rating,3176,,,1876,2179,,,,45,1
609a3eb31cacec1cad4b9448,2gdg38mr0u,"Mediated JOLs",1,18,2025-10-20T23:08:43+00:00,4.2584240436554,1,JAM_stim.csv,JAM_proc.csv,JAM,JAM,KING,VASE,Study1,U,91,35,JAM,User,-,"How many inidividuals out of 100 would provide the second word in this pair as their immediate response to the first word? |Type your response on a scale from 0-100 and then press Enter.",Study/JOL,JAM_Rating,3882,,,2852,2852,,,,5,1
609a3eb31cacec1cad4b9448,2gdg38mr0u,"Mediated JOLs",1,19,2025-10-20T23:08:47+00:00,4.1524438858032,1,JAM_stim.csv,JAM_proc.csv,JAM,JAM,AFFECTION,LOVE,Study1,F,116,73,JAM,User,-,"How many inidividuals out of 100 would provide the second word in this pair as their immediate response to the first word? |Type your response on a scale from 0-100 and then press Enter.",Study/JOL,JAM_Rating,3535,,,1969,2511,,,,89,1
609a3eb31cacec1cad4b9448,2gdg38mr0u,"Mediated JOLs",1,20,2025-10-20T23:08:53+00:00,5.5348200798035,1,JAM_stim.csv,JAM_proc.csv,JAM,JAM,OVEN,BASKET,Study1,M,71,77,JAM,User,-,"How many inidividuals out of 100 would provide the second word in this pair as their immediate response to the first word? |Type your response on a scale from 0-100 and then press Enter.",Study/JOL,JAM_Rating,5110,,,2852,3766,,,,23,1
609a3eb31cacec1cad4b9448,2gdg38mr0u,"Mediated JOLs",1,21,2025-10-20T23:08:59+00:00,5.9027590751648,1,JAM_stim.csv,JAM_proc.csv,JAM,JAM,ARTERY,BRONZE,Study1,U,103,60,JAM,User,-,"How many inidividuals out of 100 would provide the second word in this pair as their immediate response to the first word? |Type your response on a scale from 0-100 and then press Enter.",Study/JOL,JAM_Rating,5477,,,2665,4216,,,,2,1
609a3eb31cacec1cad4b9448,2gdg38mr0u,"Mediated JOLs",1,22,2025-10-20T23:09:03+00:00,4.0421710014343,1,JAM_stim.csv,JAM_proc.csv,JAM,JAM,TREE,SYRUP,Study1,M,11,38,JAM,User,-,"How many inidividuals out of 100 would provide the second word in this pair as their immediate response to the first word? |Type your response on a scale from 0-100 and then press Enter.",Study/JOL,JAM_Rating,3636,,,2512,2512,,,,0,1
609a3eb31cacec1cad4b9448,2gdg38mr0u,"Mediated JOLs",1,23,2025-10-20T23:09:08+00:00,4.9486520290375,1,JAM_stim.csv,JAM_proc.csv,JAM,JAM,MULE,DONKEY,Study1,F,109,37,JAM,User,-,"How many inidividuals out of 100 would provide the second word in this pair as their immediate response to the first word? |Type your response on a scale from 0-100 and then press Enter.",Study/JOL,JAM_Rating,4575,,,2293,2989,,,,95,1
609a3eb31cacec1cad4b9448,2gdg38mr0u,"Mediated JOLs",1,24,2025-10-20T23:09:13+00:00,4.7147138118744,1,JAM_stim.csv,JAM_proc.csv,JAM,JAM,REALITY,ISLAND,Study1,M,64,80,JAM,User,-,"How many inidividuals out of 100 would provide the second word in this pair as their immediate response to the first word? |Type your response on a scale from 0-100 and then press Enter.",Study/JOL,JAM_Rating,4343,,,3228,3228,,,,5,1
609a3eb31cacec1cad4b9448,2gdg38mr0u,"Mediated JOLs",1,25,2025-10-20T23:09:17+00:00,4.4513800144196,1,JAM_stim.csv,JAM_proc.csv,JAM,JAM,HYGIENE,CLEAN,Study1,F,113,24,JAM,User,-,"How many inidividuals out of 100 would provide the second word in this pair as their immediate response to the first word? |Type your response on a scale from 0-100 and then press Enter.",Study/JOL,JAM_Rating,4053,,,2692,2902,,,,90,1
609a3eb31cacec1cad4b9448,2gdg38mr0u,"Mediated JOLs",1,26,2025-10-20T23:09:22+00:00,4.904116153717,1,JAM_stim.csv,JAM_proc.csv,JAM,JAM,RAKE,SEED,Study1,M,69,54,JAM,User,-,"How many inidividuals out of 100 would provide the second word in this pair as their immediate response to the first word? |Type your response on a scale from 0-100 and then press Enter.",Study/JOL,JAM_Rating,4471,,,2813,3452,,,,10,1
609a3eb31cacec1cad4b9448,2gdg38mr0u,"Mediated JOLs",1,27,2025-10-20T23:09:26+00:00,4.0431339740753,1,JAM_stim.csv,JAM_proc.csv,JAM,JAM,HERD,COW,Study1,F,133,86,JAM,User,-,"How many inidividuals out of 100 would provide the second word in this pair as their immediate response to the first word? |Type your response on a scale from 0-100 and then press Enter.",Study/JOL,JAM_Rating,3661,,,2162,2606,,,,70,1
609a3eb31cacec1cad4b9448,2gdg38mr0u,"Mediated JOLs",1,28,2025-10-20T23:09:31+00:00,5.4437968730927,1,JAM_stim.csv,JAM_proc.csv,JAM,JAM,CACTUS,PLANT,Study1,F,121,18,JAM,User,-,"How many inidividuals out of 100 would provide the second word in this pair as their immediate response to the first word? |Type your response on a scale from 0-100 and then press Enter.",Study/JOL,JAM_Rating,5051,,,2074,3986,,,,91,1
609a3eb31cacec1cad4b9448,2gdg38mr0u,"Mediated JOLs",1,29,2025-10-20T23:09:35+00:00,4.0389211177826,1,JAM_stim.csv,JAM_proc.csv,JAM,JAM,BAT,BOUNCE,Study1,M,12,53,JAM,User,-,"How many inidividuals out of 100 would provide the second word in this pair as their immediate response to the first word? |Type your response on a scale from 0-100 and then press Enter.",Study/JOL,JAM_Rating,3676,,,2453,2453,,,,5,1
609a3eb31cacec1cad4b9448,2gdg38mr0u,"Mediated JOLs",1,30,2025-10-20T23:09:41+00:00,5.933807849884,1,JAM_stim.csv,JAM_proc.csv,JAM,JAM,SOON,BELT,Study1,U,46,95,JAM,User,-,"How many inidividuals out of 100 would provide the second word in this pair as their immediate response to the first word? |Type your response on a scale from 0-100 and then press Enter.",Study/JOL,JAM_Rating,5574,,,4149,4149,,,,1,1
609a3eb31cacec1cad4b9448,2gdg38mr0u,"Mediated JOLs",1,31,2025-10-20T23:09:46+00:00,4.4807391166687,1,JAM_stim.csv,JAM_proc.csv,JAM,JAM,BENCH,HORN,Study1,U,98,76,JAM,User,-,"How many inidividuals out of 100 would provide the second word in this pair as their immediate response to the first word? |Type your response on a scale from 0-100 and then press Enter.",Study/JOL,JAM_Rating,4113,,,2995,2995,,,,5,1
609a3eb31cacec1cad4b9448,2gdg38mr0u,"Mediated JOLs",1,32,2025-10-20T23:09:50+00:00,3.872654914856,1,JAM_stim.csv,JAM_proc.csv,JAM,JAM,ART,WOLF,Study1,U,93,92,JAM,User,-,"How many inidividuals out of 100 would provide the second word in this pair as their immediate response to the first word? |Type your response on a scale from 0-100 and then press Enter.",Study/JOL,JAM_Rating,3496,,,2485,2485,,,,0,1
609a3eb31cacec1cad4b9448,2gdg38mr0u,"Mediated JOLs",1,33,2025-10-20T23:09:55+00:00,5.2522120475769,1,JAM_stim.csv,JAM_proc.csv,JAM,JAM,EYES,SMELL,Study1,M,65,48,JAM,User,-,"How many inidividuals out of 100 would provide the second word in this pair as their immediate response to the first word? |Type your response on a scale from 0-100 and then press Enter.",Study/JOL,JAM_Rating,4890,,,2891,3615,,,,20,1
609a3eb31cacec1cad4b9448,2gdg38mr0u,"Mediated JOLs",1,34,2025-10-20T23:10:01+00:00,5.5845060348511,1,JAM_stim.csv,JAM_proc.csv,JAM,JAM,CRY,BOTTLE,Study1,M,16,20,JAM,User,-,"How many inidividuals out of 100 would provide the second word in this pair as their immediate response to the first word? |Type your response on a scale from 0-100 and then press Enter.",Study/JOL,JAM_Rating,5193,,,3305,3777,,,,45,1
609a3eb31cacec1cad4b9448,2gdg38mr0u,"Mediated JOLs",1,35,2025-10-20T23:10:04+00:00,3.5767691135406,1,JAM_stim.csv,JAM_proc.csv,JAM,JAM,CREDIT,CARD,Study1,F,118,67,JAM,User,-,"How many inidividuals out of 100 would provide the second word in this pair as their immediate response to the first word? |Type your response on a scale from 0-100 and then press Enter.",Study/JOL,JAM_Rating,3202,,,1998,2141,,,,99,1
609a3eb31cacec1cad4b9448,2gdg38mr0u,"Mediated JOLs",1,36,2025-10-20T23:10:10+00:00,5.6900148391724,1,JAM_stim.csv,JAM_proc.csv,JAM,JAM,KEYS,ROD,Study1,U,45,63,JAM,User,-,"How many inidividuals out of 100 would provide the second word in this pair as their immediate response to the first word? |Type your response on a scale from 0-100 and then press Enter.",Study/JOL,JAM_Rating,5281,,,2128,4065,,,,2,1
609a3eb31cacec1cad4b9448,2gdg38mr0u,"Mediated JOLs",1,37,2025-10-20T23:10:15+00:00,5.4868569374084,1,JAM_stim.csv,JAM_proc.csv,JAM,JAM,PANTS,COLLAR,Study1,M,63,7,JAM,User,-,"How many inidividuals out of 100 would provide the second word in this pair as their immediate response to the first word? |Type your response on a scale from 0-100 and then press Enter.",Study/JOL,JAM_Rating,5106,,,3053,3978,,,,40,1
609a3eb31cacec1cad4b9448,2gdg38mr0u,"Mediated JOLs",1,38,2025-10-20T23:10:22+00:00,6.8008620738983,1,JAM_stim.csv,JAM_proc.csv,JAM,JAM,BOTH,OUNCE,Study1,U,102,52,JAM,User,-,"How many inidividuals out of 100 would provide the second word in this pair as their immediate response to the first word? |Type your response on a scale from 0-100 and then press Enter.",Study/JOL,JAM_Rating,6412,,,3898,4679,,,,25,1
609a3eb31cacec1cad4b9448,2gdg38mr0u,"Mediated JOLs",1,39,2025-10-20T23:10:26+00:00,3.8260209560394,1,JAM_stim.csv,JAM_proc.csv,JAM,JAM,NAP,SLEEP,Study1,F,114,91,JAM,User,-,"How many inidividuals out of 100 would provide the second word in this pair as their immediate response to the first word? |Type your response on a scale from 0-100 and then press Enter.",Study/JOL,JAM_Rating,3393,,,1940,2117,,,,90,1
609a3eb31cacec1cad4b9448,2gdg38mr0u,"Mediated JOLs",1,40,2025-10-20T23:10:32+00:00,6.0070531368256,1,JAM_stim.csv,JAM_proc.csv,JAM,JAM,HARD,COTTON,Study1,M,20,28,JAM,User,-,"How many inidividuals out of 100 would provide the second word in this pair as their immediate response to the first word? |Type your response on a scale from 0-100 and then press Enter.",Study/JOL,JAM_Rating,5642,,,3182,3182,,,,3,1
609a3eb31cacec1cad4b9448,2gdg38mr0u,"Mediated JOLs",1,41,2025-10-20T23:10:36+00:00,4.009861946106,1,JAM_stim.csv,JAM_proc.csv,JAM,JAM,PILL,BOTTLE,Study1,F,115,70,JAM,User,-,"How many inidividuals out of 100 would provide the second word in this pair as their immediate response to the first word? |Type your response on a scale from 0-100 and then press Enter.",Study/JOL,JAM_Rating,3638,,,2336,2336,,,,5,1
609a3eb31cacec1cad4b9448,2gdg38mr0u,"Mediated JOLs",1,42,2025-10-20T23:10:40+00:00,3.7539970874786,1,JAM_stim.csv,JAM_proc.csv,JAM,JAM,LEAGUE,BASEBALL,Study1,F,129,90,JAM,User,-,"How many inidividuals out of 100 would provide the second word in this pair as their immediate response to the first word? |Type your response on a scale from 0-100 and then press Enter.",Study/JOL,JAM_Rating,3367,,,2094,2300,,,,90,1
609a3eb31cacec1cad4b9448,2gdg38mr0u,"Mediated JOLs",1,43,2025-10-20T23:10:44+00:00,3.8693950176239,1,JAM_stim.csv,JAM_proc.csv,JAM,JAM,CHERRY,RED,Study1,F,125,30,JAM,User,-,"How many inidividuals out of 100 would provide the second word in this pair as their immediate response to the first word? |Type your response on a scale from 0-100 and then press Enter.",Study/JOL,JAM_Rating,3442,,,1901,2358,,,,95,1
609a3eb31cacec1cad4b9448,2gdg38mr0u,"Mediated JOLs",1,44,2025-10-20T23:10:48+00:00,4.206955909729,1,JAM_stim.csv,JAM_proc.csv,JAM,JAM,DOCUMENT,PAPER,Study1,F,127,25,JAM,User,-,"How many inidividuals out of 100 would provide the second word in this pair as their immediate response to the first word? |Type your response on a scale from 0-100 and then press Enter.",Study/JOL,JAM_Rating,3811,,,2205,2655,,,,85,1
609a3eb31cacec1cad4b9448,2gdg38mr0u,"Mediated JOLs",1,45,2025-10-20T23:10:56+00:00,8.2568590641022,1,JAM_stim.csv,JAM_proc.csv,JAM,JAM,HAPPY,CAR,Study1,U,92,89,JAM,User,-,"How many inidividuals out of 100 would provide the second word in this pair as their immediate response to the first word? |Type your response on a scale from 0-100 and then press Enter.",Study/JOL,JAM_Rating,7888,,,5869,6686,,,,10,1
609a3eb31cacec1cad4b9448,2gdg38mr0u,"Mediated JOLs",1,46,2025-10-20T23:11:01+00:00,4.7171359062195,1,JAM_stim.csv,JAM_proc.csv,JAM,JAM,MAZE,PHONE,Study1,U,42,21,JAM,User,-,"How many inidividuals out of 100 would provide the second word in this pair as their immediate response to the first word? |Type your response on a scale from 0-100 and then press Enter.",Study/JOL,JAM_Rating,4284,,,3289,3289,,,,0,1
609a3eb31cacec1cad4b9448,2gdg38mr0u,"Mediated JOLs",1,47,2025-10-20T23:11:06+00:00,5.7312169075012,1,JAM_stim.csv,JAM_proc.csv,JAM,JAM,PUSH,CLUTTER,Study1,U,96,64,JAM,User,-,"How many inidividuals out of 100 would provide the second word in this pair as their immediate response to the first word? |Type your response on a scale from 0-100 and then press Enter.",Study/JOL,JAM_Rating,5321,,,2433,3578,,,,10,1
609a3eb31cacec1cad4b9448,2gdg38mr0u,"Mediated JOLs",1,48,2025-10-20T23:11:11+00:00,4.5373930931091,1,JAM_stim.csv,JAM_proc.csv,JAM,JAM,SCALP,HEAD,Study1,F,108,15,JAM,User,-,"How many inidividuals out of 100 would provide the second word in this pair as their immediate response to the first word? |Type your response on a scale from 0-100 and then press Enter.",Study/JOL,JAM_Rating,4117,,,2175,2717,,,,95,1
609a3eb31cacec1cad4b9448,2gdg38mr0u,"Mediated JOLs",1,49,2025-10-20T23:11:16+00:00,4.7895479202271,1,JAM_stim.csv,JAM_proc.csv,JAM,JAM,LEASE,TOIL,Study1,U,101,81,JAM,User,-,"How many inidividuals out of 100 would provide the second word in this pair as their immediate response to the first word? |Type your response on a scale from 0-100 and then press Enter.",Study/JOL,JAM_Rating,4410,,,2787,2787,,,,0,1
609a3eb31cacec1cad4b9448,2gdg38mr0u,"Mediated JOLs",1,50,2025-10-20T23:11:20+00:00,4.2744481563568,1,JAM_stim.csv,JAM_proc.csv,JAM,JAM,GIVE,STEAK,Study1,U,38,12,JAM,User,-,"How many inidividuals out of 100 would provide the second word in this pair as their immediate response to the first word? |Type your response on a scale from 0-100 and then press Enter.",Study/JOL,JAM_Rating,3902,,,2861,2861,,,,5,1
609a3eb31cacec1cad4b9448,2gdg38mr0u,"Mediated JOLs",1,51,2025-10-20T23:11:25+00:00,4.6872580051422,1,JAM_stim.csv,JAM_proc.csv,JAM,JAM,MEAT,KEYS,Study1,U,41,40,JAM,User,-,"How many inidividuals out of 100 would provide the second word in this pair as their immediate response to the first word? |Type your response on a scale from 0-100 and then press Enter.",Study/JOL,JAM_Rating,4282,,,3077,3077,,,,0,1
609a3eb31cacec1cad4b9448,2gdg38mr0u,"Mediated JOLs",1,52,2025-10-20T23:11:28+00:00,3.1966228485107,1,JAM_stim.csv,JAM_proc.csv,JAM,JAM,CAKE,HAND,Study1,U,49,13,JAM,User,-,"How many inidividuals out of 100 would provide the second word in this pair as their immediate response to the first word? |Type your response on a scale from 0-100 and then press Enter.",Study/JOL,JAM_Rating,2805,,,1559,1559,,,,5,1
609a3eb31cacec1cad4b9448,2gdg38mr0u,"Mediated JOLs",1,53,2025-10-20T23:11:32+00:00,3.6424450874329,1,JAM_stim.csv,JAM_proc.csv,JAM,JAM,WORD,SENTENCE,Study1,F,112,10,JAM,User,-,"How many inidividuals out of 100 would provide the second word in this pair as their immediate response to the first word? |Type your response on a scale from 0-100 and then press Enter.",Study/JOL,JAM_Rating,3271,,,1852,2101,,,,90,1
609a3eb31cacec1cad4b9448,2gdg38mr0u,"Mediated JOLs",1,54,2025-10-20T23:11:36+00:00,4.5105710029602,1,JAM_stim.csv,JAM_proc.csv,JAM,JAM,SUMMER,SNOW,Study1,M,61,55,JAM,User,-,"How many inidividuals out of 100 would provide the second word in this pair as their immediate response to the first word? |Type your response on a scale from 0-100 and then press Enter.",Study/JOL,JAM_Rating,4120,,,2574,2946,,,,95,1
609a3eb31cacec1cad4b9448,2gdg38mr0u,"Mediated JOLs",1,55,2025-10-20T23:11:41+00:00,4.9506421089172,1,JAM_stim.csv,JAM_proc.csv,JAM,JAM,CEILING,CARPET,Study1,M,15,94,JAM,User,-,"How many inidividuals out of 100 would provide the second word in this pair as their immediate response to the first word? |Type your response on a scale from 0-100 and then press Enter.",Study/JOL,JAM_Rating,4548,,,2975,3469,,,,70,1
609a3eb31cacec1cad4b9448,2gdg38mr0u,"Mediated JOLs",1,56,2025-10-20T23:11:45+00:00,4.0639638900757,1,JAM_stim.csv,JAM_proc.csv,JAM,JAM,ROOT,PLANT,Study1,F,110,68,JAM,User,-,"How many inidividuals out of 100 would provide the second word in this pair as their immediate response to the first word? |Type your response on a scale from 0-100 and then press Enter.",Study/JOL,JAM_Rating,3642,,,1913,2222,,,,80,1
609a3eb31cacec1cad4b9448,2gdg38mr0u,"Mediated JOLs",1,57,2025-10-20T23:11:50+00:00,4.4788210391998,1,JAM_stim.csv,JAM_proc.csv,JAM,JAM,SOAP,DRINK,Study1,M,67,79,JAM,User,-,"How many inidividuals out of 100 would provide the second word in this pair as their immediate response to the first word? |Type your response on a scale from 0-100 and then press Enter.",Study/JOL,JAM_Rating,4047,,,2675,2675,,,,5,1
609a3eb31cacec1cad4b9448,2gdg38mr0u,"Mediated JOLs",1,58,2025-10-20T23:11:54+00:00,4.7538850307465,1,JAM_stim.csv,JAM_proc.csv,JAM,JAM,HORSE,WHEEL,Study1,M,14,83,JAM,User,-,"How many inidividuals out of 100 would provide the second word in this pair as their immediate response to the first word? |Type your response on a scale from 0-100 and then press Enter.",Study/JOL,JAM_Rating,4353,,,2456,2993,,,,30,1
609a3eb31cacec1cad4b9448,2gdg38mr0u,"Mediated JOLs",1,59,2025-10-20T23:12:01+00:00,6.5252070426941,1,JAM_stim.csv,JAM_proc.csv,JAM,JAM,CIRCLE,DANCE,Study1,M,13,43,JAM,User,-,"How many inidividuals out of 100 would provide the second word in this pair as their immediate response to the first word? |Type your response on a scale from 0-100 and then press Enter.",Study/JOL,JAM_Rating,6147,,,2575,4894,,,,30,1
609a3eb31cacec1cad4b9448,2gdg38mr0u,"Mediated JOLs",1,60,2025-10-20T23:12:05+00:00,4.0425968170166,1,JAM_stim.csv,JAM_proc.csv,JAM,JAM,SIP,DRINK,Study1,F,117,23,JAM,User,-,"How many inidividuals out of 100 would provide the second word in this pair as their immediate response to the first word? |Type your response on a scale from 0-100 and then press Enter.",Study/JOL,JAM_Rating,3639,,,2206,2400,,,,90,1
609a3eb31cacec1cad4b9448,2gdg38mr0u,"Mediated JOLs",1,61,2025-10-20T23:12:10+00:00,5.5654261112213,1,JAM_stim.csv,JAM_proc.csv,JAM,JAM,CHILL,COLD,Study1,F,132,11,JAM,User,-,"How many inidividuals out of 100 would provide the second word in this pair as their immediate response to the first word? |Type your response on a scale from 0-100 and then press Enter.",Study/JOL,JAM_Rating,5171,,,3468,3882,,,,95,1
609a3eb31cacec1cad4b9448,2gdg38mr0u,"Mediated JOLs",1,62,2025-10-20T23:12:19+00:00,8.6138160228729,1,JAM_stim.csv,JAM_proc.csv,JAM,JAM,DIETARY,SACK,Study1,U,97,19,JAM,User,-,"How many inidividuals out of 100 would provide the second word in this pair as their immediate response to the first word? |Type your response on a scale from 0-100 and then press Enter.",Study/JOL,JAM_Rating,8243,,,7169,7169,,,,5,1
609a3eb31cacec1cad4b9448,2gdg38mr0u,"Mediated JOLs",1,63,2025-10-20T23:12:23+00:00,3.9788298606873,1,JAM_stim.csv,JAM_proc.csv,JAM,JAM,MIRROR,CHILDREN,Study1,U,104,66,JAM,User,-,"How many inidividuals out of 100 would provide the second word in this pair as their immediate response to the first word? |Type your response on a scale from 0-100 and then press Enter.",Study/JOL,JAM_Rating,3560,,,2094,2094,,,,5,1
609a3eb31cacec1cad4b9448,2gdg38mr0u,"Mediated JOLs",1,64,2025-10-20T23:12:29+00:00,5.4991111755371,1,JAM_stim.csv,JAM_proc.csv,JAM,JAM,CRACKLE,ELECTION,Study1,U,39,62,JAM,User,-,"How many inidividuals out of 100 would provide the second word in this pair as their immediate response to the first word? |Type your response on a scale from 0-100 and then press Enter.",Study/JOL,JAM_Rating,5143,,,3260,3993,,,,10,1
609a3eb31cacec1cad4b9448,2gdg38mr0u,"Mediated JOLs",1,65,2025-10-20T23:12:33+00:00,4.0846478939056,1,JAM_stim.csv,JAM_proc.csv,JAM,JAM,SCHOOL,STOP,Study1,M,62,58,JAM,User,-,"How many inidividuals out of 100 would provide the second word in this pair as their immediate response to the first word? |Type your response on a scale from 0-100 and then press Enter.",Study/JOL,JAM_Rating,3714,,,2060,2578,,,,60,1
609a3eb31cacec1cad4b9448,2gdg38mr0u,"Mediated JOLs",1,66,2025-10-20T23:12:41+00:00,8.46875,1,JAM_stim.csv,JAM_proc.csv,JAM,JAM,RAZOR,MUSCLE,Study1,M,75,51,JAM,User,-,"How many inidividuals out of 100 would provide the second word in this pair as their immediate response to the first word? |Type your response on a scale from 0-100 and then press Enter.",Study/JOL,JAM_Rating,8092,,,6673,6673,,,,4,1
609a3eb31cacec1cad4b9448,2gdg38mr0u,"Mediated JOLs",1,67,2025-10-20T23:12:46+00:00,5.2311859130859,1,JAM_stim.csv,JAM_proc.csv,JAM,JAM,TEMPERATURE,MORNING,Study1,U,48,72,JAM,User,-,"How many inidividuals out of 100 would provide the second word in this pair as their immediate response to the first word? |Type your response on a scale from 0-100 and then press Enter.",Study/JOL,JAM_Rating,4854,,,3244,3859,,,,50,1
609a3eb31cacec1cad4b9448,2gdg38mr0u,"Mediated JOLs",1,68,2025-10-20T23:12:52+00:00,5.9834060668945,1,JAM_stim.csv,JAM_proc.csv,JAM,JAM,STRETCH,CLOTH,Study1,U,37,78,JAM,User,-,"How many inidividuals out of 100 would provide the second word in this pair as their immediate response to the first word? |Type your response on a scale from 0-100 and then press Enter.",Study/JOL,JAM_Rating,5518,,,3502,4316,,,,40,1
609a3eb31cacec1cad4b9448,2gdg38mr0u,"Mediated JOLs",1,69,2025-10-20T23:12:57+00:00,4.1499960422516,1,JAM_stim.csv,JAM_proc.csv,JAM,JAM,ORCHID,FLOWER,Study1,F,119,46,JAM,User,-,"How many inidividuals out of 100 would provide the second word in this pair as their immediate response to the first word? |Type your response on a scale from 0-100 and then press Enter.",Study/JOL,JAM_Rating,3744,,,2029,2216,,,,90,1
609a3eb31cacec1cad4b9448,2gdg38mr0u,"Mediated JOLs",1,70,2025-10-20T23:13:01+00:00,4.2654988765717,1,JAM_stim.csv,JAM_proc.csv,JAM,JAM,WINDOW,KNOB,Study1,M,74,27,JAM,User,-,"How many inidividuals out of 100 would provide the second word in this pair as their immediate response to the first word? |Type your response on a scale from 0-100 and then press Enter.",Study/JOL,JAM_Rating,3885,,,2468,2735,,,,35,1
609a3eb31cacec1cad4b9448,2gdg38mr0u,"Mediated JOLs",1,71,2025-10-20T23:13:04+00:00,3.4556231498718,1,JAM_stim.csv,JAM_proc.csv,JAM,JAM,BLAZE,FIRE,Study1,F,126,49,JAM,User,-,"How many inidividuals out of 100 would provide the second word in this pair as their immediate response to the first word? |Type your response on a scale from 0-100 and then press Enter.",Study/JOL,JAM_Rating,3042,,,1773,1971,,,,90,1
609a3eb31cacec1cad4b9448,2gdg38mr0u,"Mediated JOLs",1,72,2025-10-20T23:13:09+00:00,5.2486810684204,1,JAM_stim.csv,JAM_proc.csv,JAM,JAM,LISTEN,FICTION,Study1,U,44,44,JAM,User,-,"How many inidividuals out of 100 would provide the second word in this pair as their immediate response to the first word? |Type your response on a scale from 0-100 and then press Enter.",Study/JOL,JAM_Rating,4864,,,3037,3449,,,,70,1
609a3eb31cacec1cad4b9448,2gdg38mr0u,"Mediated JOLs",1,73,2025-10-20T23:13:14+00:00,4.488187789917,1,JAM_stim.csv,JAM_proc.csv,JAM,JAM,GRILL,THIGH,Study1,M,72,71,JAM,User,-,"How many inidividuals out of 100 would provide the second word in this pair as their immediate response to the first word? |Type your response on a scale from 0-100 and then press Enter.",Study/JOL,JAM_Rating,4103,,,3038,3038,,,,4,1
609a3eb31cacec1cad4b9448,2gdg38mr0u,"Mediated JOLs",1,74,2025-10-20T23:13:18+00:00,3.9474680423737,1,JAM_stim.csv,JAM_proc.csv,JAM,JAM,BRIDGE,WATER,Study1,F,135,45,JAM,User,-,"How many inidividuals out of 100 would provide the second word in this pair as their immediate response to the first word? |Type your response on a scale from 0-100 and then press Enter.",Study/JOL,JAM_Rating,3573,,,1975,2502,,,,95,1
609a3eb31cacec1cad4b9448,2gdg38mr0u,"Mediated JOLs",1,75,2025-10-20T23:13:23+00:00,4.6556701660156,1,JAM_stim.csv,JAM_proc.csv,JAM,JAM,SHELL,SHAKE,Study1,U,43,14,JAM,User,-,"How many inidividuals out of 100 would provide the second word in this pair as their immediate response to the first word? |Type your response on a scale from 0-100 and then press Enter.",Study/JOL,JAM_Rating,4263,,,3220,3220,,,,0,1
609a3eb31cacec1cad4b9448,2gdg38mr0u,"Mediated JOLs",1,76,2025-10-20T23:13:26+00:00,3.8560349941254,1,JAM_stim.csv,JAM_proc.csv,JAM,JAM,CHISEL,HAMMER,Study1,F,123,56,JAM,User,-,"How many inidividuals out of 100 would provide the second word in this pair as their immediate response to the first word? |Type your response on a scale from 0-100 and then press Enter.",Study/JOL,JAM_Rating,3475,,,2001,2361,,,,79,1
609a3eb31cacec1cad4b9448,2gdg38mr0u,"Mediated JOLs",1,77,2025-10-20T23:13:30+00:00,3.7828328609467,1,JAM_stim.csv,JAM_proc.csv,JAM,JAM,WAGE,MONEY,Study1,F,107,84,JAM,User,-,"How many inidividuals out of 100 would provide the second word in this pair as their immediate response to the first word? |Type your response on a scale from 0-100 and then press Enter.",Study/JOL,JAM_Rating,3392,,,1664,2115,,,,95,1
609a3eb31cacec1cad4b9448,2gdg38mr0u,"Mediated JOLs",1,78,2025-10-20T23:13:38+00:00,7.4127490520477,1,JAM_stim.csv,JAM_proc.csv,JAM,JAM,TOOTH,HAIR,Study1,M,19,36,JAM,User,-,"How many inidividuals out of 100 would provide the second word in this pair as their immediate response to the first word? |Type your response on a scale from 0-100 and then press Enter.",Study/JOL,JAM_Rating,7006,,,2448,5571,,,,35,1
609a3eb31cacec1cad4b9448,2gdg38mr0u,"Mediated JOLs",1,79,2025-10-20T23:13:41+00:00,3.1191389560699,1,JAM_stim.csv,JAM_proc.csv,JAM,JAM,FUZZY,BANG,Study1,U,50,34,JAM,User,-,"How many inidividuals out of 100 would provide the second word in this pair as their immediate response to the first word? |Type your response on a scale from 0-100 and then press Enter.",Study/JOL,JAM_Rating,2739,,,1669,1669,,,,0,1
609a3eb31cacec1cad4b9448,2gdg38mr0u,"Mediated JOLs",1,80,2025-10-20T23:13:45+00:00,4.0819361209869,1,JAM_stim.csv,JAM_proc.csv,JAM,JAM,NURSE,LAWYER,Study1,M,66,61,JAM,User,-,"How many inidividuals out of 100 would provide the second word in this pair as their immediate response to the first word? |Type your response on a scale from 0-100 and then press Enter.",Study/JOL,JAM_Rating,3700,,,2004,2684,,,,40,1
609a3eb31cacec1cad4b9448,2gdg38mr0u,"Mediated JOLs",1,81,2025-10-20T23:13:49+00:00,3.9148309230804,1,JAM_stim.csv,JAM_proc.csv,JAM,JAM,CHOP,CUT,Study1,F,122,75,JAM,User,-,"How many inidividuals out of 100 would provide the second word in this pair as their immediate response to the first word? |Type your response on a scale from 0-100 and then press Enter.",Study/JOL,JAM_Rating,3533,,,2067,2445,,,,95,1
609a3eb31cacec1cad4b9448,2gdg38mr0u,"Mediated JOLs",1,82,2025-10-20T23:13:55+00:00,6.5667490959167,1,JAM_stim.csv,JAM_proc.csv,JAM,JAM,HEAVY,FEATHER,Study1,M,68,87,JAM,User,-,"How many inidividuals out of 100 would provide the second word in this pair as their immediate response to the first word? |Type your response on a scale from 0-100 and then press Enter.",Study/JOL,JAM_Rating,6139,,,4061,4552,,,,70,1
609a3eb31cacec1cad4b9448,2gdg38mr0u,"Mediated JOLs",1,83,2025-10-20T23:14:00+00:00,4.693256855011,1,JAM_stim.csv,JAM_proc.csv,JAM,JAM,SWAN,BIRD,Study1,F,111,96,JAM,User,-,"How many inidividuals out of 100 would provide the second word in this pair as their immediate response to the first word? |Type your response on a scale from 0-100 and then press Enter.",Study/JOL,JAM_Rating,4311,,,2863,3044,,,,90,1
609a3eb31cacec1cad4b9448,2gdg38mr0u,"Mediated JOLs",1,84,2025-10-20T23:14:06+00:00,5.9118371009827,1,JAM_stim.csv,JAM_proc.csv,JAM,JAM,DAY,DARK,Study1,M,18,47,JAM,User,-,"How many inidividuals out of 100 would provide the second word in this pair as their immediate response to the first word? |Type your response on a scale from 0-100 and then press Enter.",Study/JOL,JAM_Rating,5526,,,3839,4385,,,,95,1
609a3eb31cacec1cad4b9448,2gdg38mr0u,"Mediated JOLs",1,85,2025-10-20T23:14:09+00:00,3.4882249832153,1,JAM_stim.csv,JAM_proc.csv,JAM,JAM,BEACH,BOX,Study1,M,7,26,JAM,User,-,"How many inidividuals out of 100 would provide the second word in this pair as their immediate response to the first word? |Type your response on a scale from 0-100 and then press Enter.",Study/JOL,JAM_Rating,3117,,,2202,2202,,,,0,1
609a3eb31cacec1cad4b9448,2gdg38mr0u,"Mediated JOLs",1,86,2025-10-20T23:14:13+00:00,3.8810329437256,1,JAM_stim.csv,JAM_proc.csv,JAM,JAM,FEUD,FIGHT,Study1,F,131,33,JAM,User,-,"How many inidividuals out of 100 would provide the second word in this pair as their immediate response to the first word? |Type your response on a scale from 0-100 and then press Enter.",Study/JOL,JAM_Rating,3508,,,2049,2547,,,,95,1
609a3eb31cacec1cad4b9448,2gdg38mr0u,"Mediated JOLs",1,87,2025-10-20T23:14:17+00:00,3.8234529495239,1,JAM_stim.csv,JAM_proc.csv,JAM,JAM,ATTIRE,CLOTHES,Study1,F,124,31,JAM,User,-,"How many inidividuals out of 100 would provide the second word in this pair as their immediate response to the first word? |Type your response on a scale from 0-100 and then press Enter.",Study/JOL,JAM_Rating,3436,,,2535,2679,,,,99,1
609a3eb31cacec1cad4b9448,2gdg38mr0u,"Mediated JOLs",1,88,2025-10-20T23:14:22+00:00,5.3803009986877,1,JAM_stim.csv,JAM_proc.csv,JAM,JAM,SIGN,TICK,Study1,U,47,29,JAM,User,-,"How many inidividuals out of 100 would provide the second word in this pair as their immediate response to the first word? |Type your response on a scale from 0-100 and then press Enter.",Study/JOL,JAM_Rating,5006,,,3287,3964,,,,75,1
609a3eb31cacec1cad4b9448,2gdg38mr0u,"Mediated JOLs",1,89,2025-10-20T23:14:26+00:00,3.5561261177063,1,JAM_stim.csv,JAM_proc.csv,JAM,JAM,STRONG,ACCIDENT,Study1,U,94,50,JAM,User,-,"How many inidividuals out of 100 would provide the second word in this pair as their immediate response to the first word? |Type your response on a scale from 0-100 and then press Enter.",Study/JOL,JAM_Rating,2854,,,2096,2096,,,,0,1
609a3eb31cacec1cad4b9448,2gdg38mr0u,"Mediated JOLs",1,90,2025-10-20T23:14:31+00:00,5.2078340053558,1,JAM_stim.csv,JAM_proc.csv,JAM,JAM,MIRROR,MAROON,Study1,U,36,93,JAM,User,-,"How many inidividuals out of 100 would provide the second word in this pair as their immediate response to the first word? |Type your response on a scale from 0-100 and then press Enter.",Study/JOL,JAM_Rating,4834,,,3934,3935,,,,5,1
609a3eb31cacec1cad4b9448,2gdg38mr0u,"Mediated JOLs",1,91,2025-10-20T23:14:36+00:00,4.4541838169098,1,JAM_stim.csv,JAM_proc.csv,JAM,JAM,ROUGH,SILK,Study1,M,10,8,JAM,User,-,"How many inidividuals out of 100 would provide the second word in this pair as their immediate response to the first word? |Type your response on a scale from 0-100 and then press Enter.",Study/JOL,JAM_Rating,4056,,,2594,3285,,,,60,1
609a3eb31cacec1cad4b9448,2gdg38mr0u,"Mediated JOLs",1,92,2025-10-20T23:14:39+00:00,2.87748503685,1,JAM_stim.csv,JAM_proc.csv,JAM,JAM,SICK,HIDE,Study1,U,100,39,JAM,User,-,"How many inidividuals out of 100 would provide the second word in this pair as their immediate response to the first word? |Type your response on a scale from 0-100 and then press Enter.",Study/JOL,JAM_Rating,2496,,,1883,1884,,,,0,1
609a3eb31cacec1cad4b9448,2gdg38mr0u,"Mediated JOLs",1,93,2025-10-20T23:14:43+00:00,4.2413339614868,1,JAM_stim.csv,JAM_proc.csv,JAM,JAM,CASH,STUDY,Study1,U,105,85,JAM,User,-,"How many inidividuals out of 100 would provide the second word in this pair as their immediate response to the first word? |Type your response on a scale from 0-100 and then press Enter.",Study/JOL,JAM_Rating,3861,,,2299,3035,,,,15,1
609a3eb31cacec1cad4b9448,2gdg38mr0u,"Mediated JOLs",1,94,2025-10-20T23:14:47+00:00,4.6459541320801,1,JAM_stim.csv,JAM_proc.csv,JAM,JAM,DEATH,BUSINESS,Study1,U,99,65,JAM,User,-,"How many inidividuals out of 100 would provide the second word in this pair as their immediate response to the first word? |Type your response on a scale from 0-100 and then press Enter.",Study/JOL,JAM_Rating,4169,,,2766,2766,,,,0,1
609a3eb31cacec1cad4b9448,2gdg38mr0u,"Mediated JOLs",1,95,2025-10-20T23:14:53+00:00,5.2066490650177,1,JAM_stim.csv,JAM_proc.csv,JAM,JAM,VEHICLE,CHARM,Study1,U,40,59,JAM,User,-,"How many inidividuals out of 100 would provide the second word in this pair as their immediate response to the first word? |Type your response on a scale from 0-100 and then press Enter.",Study/JOL,JAM_Rating,4814,,,3376,3376,,,,5,1
609a3eb31cacec1cad4b9448,2gdg38mr0u,"Mediated JOLs",1,96,2025-10-20T23:14:56+00:00,3.7592940330505,1,JAM_stim.csv,JAM_proc.csv,JAM,JAM,INCENSE,SMELL,Study1,F,128,22,JAM,User,-,"How many inidividuals out of 100 would provide the second word in this pair as their immediate response to the first word? |Type your response on a scale from 0-100 and then press Enter.",Study/JOL,JAM_Rating,3367,,,1834,2137,,,,99,1
609a3eb31cacec1cad4b9448,2gdg38mr0u,"Mediated JOLs",1,97,2025-10-20T23:15:04+00:00,7.2008697986603,1,JAM_stim.csv,JAM_proc.csv,JAM,JAM,WASP,BUG,Study1,F,134,69,JAM,User,-,"How many inidividuals out of 100 would provide the second word in this pair as their immediate response to the first word? |Type your response on a scale from 0-100 and then press Enter.",Study/JOL,JAM_Rating,6781,,,4427,5437,,,,100,1
609a3eb31cacec1cad4b9448,2gdg38mr0u,"Mediated JOLs",1,98,2025-10-20T23:15:08+00:00,4.0154311656952,1,JAM_stim.csv,JAM_proc.csv,JAM,JAM,TUNA,FISH,Study1,F,120,32,JAM,User,-,"How many inidividuals out of 100 would provide the second word in this pair as their immediate response to the first word? |Type your response on a scale from 0-100 and then press Enter.",Study/JOL,JAM_Rating,3616,,,1674,2608,,,,100,1
609a3eb31cacec1cad4b9448,2gdg38mr0u,"Mediated JOLs",1,99,2025-10-20T23:15:12+00:00,4.3966469764709,1,JAM_stim.csv,JAM_proc.csv,JAM,JAM,LITTER,TRASH,Study1,F,106,88,JAM,User,-,"How many inidividuals out of 100 would provide the second word in this pair as their immediate response to the first word? |Type your response on a scale from 0-100 and then press Enter.",Study/JOL,JAM_Rating,4021,,,2489,2699,,,,90,1
609a3eb31cacec1cad4b9448,2gdg38mr0u,"Mediated JOLs",1,100,2025-10-20T23:15:19+00:00,6.9791300296783,1,JAM_stim.csv,JAM_proc.csv,JAM,JAM,BIRTHDAY,PIE,Study1,M,9,42,JAM,User,-,"How many inidividuals out of 100 would provide the second word in this pair as their immediate response to the first word? |Type your response on a scale from 0-100 and then press Enter.",Study/JOL,JAM_Rating,6528,,,4678,5461,,,,30,1
609a3eb31cacec1cad4b9448,2gdg38mr0u,"Mediated JOLs",1,101,2025-10-20T23:15:24+00:00,4.8566608428955,1,JAM_stim.csv,JAM_proc.csv,JAM,JAM,LION,STRIPES,Study1,M,6,57,JAM,User,-,"How many inidividuals out of 100 would provide the second word in this pair as their immediate response to the first word? |Type your response on a scale from 0-100 and then press Enter.",Study/JOL,JAM_Rating,4456,,,1828,3398,,,,35,1
609a3eb31cacec1cad4b9448,2gdg38mr0u,"Mediated JOLs",1,102,2025-10-20T23:15:26+00:00,1.9576990604401,1,JAM_stim.csv,JAM_proc.csv,JAM,JAM,,,,,,0,Instruct,User,-,"You have completed this section. Please press Enter.",,Instruct7,1578,,,-1,-1,,,,,1
609a3eb31cacec1cad4b9448,2gdg38mr0u,"Mediated JOLs",1,103,2025-10-20T23:15:28+00:00,2.4964480400085,1,JAM_stim.csv,JAM_proc.csv,JAM,JAM,,,,,,0,Instruct,User,-,"The following screen will ask you a few questions abour your experience today. You must complete these questions to receive credit.",,Instruct8,2121,,,-1,-1,,,,,1
