Username,ID,ExperimentName,Session,Trial,Date,TimeDif,"Condition Number","Stimuli File","Order File","Condition Description","Condition Notes",Stimuli*Cue,Stimuli*Answer,Stimuli*Shuffle,"Stimuli*Stimuli Notes",Stimuli*Value,Procedure*Item,"Procedure*Trial Type","Procedure*Max Time","Procedure*Min Time",Procedure*Text,"Procedure*Procedure Notes",Procedure*Shuffle,Response*RT,Response*Response,Response*Accuracy,Response*RTfirst,Response*RTlast,Response*strictAcc,Response*lenientAcc,Response*focus,Response*JOL,Response*Focus
66e4e41d14e1d19d88229740,u4ledupp4t,"Mediated JOLs",1,1,2025-10-20T23:07:30+00:00,30.828091859818,1,JAM_stim.csv,JAM_proc.csv,JAM,JAM,,,,,,0,Instruct,-,5,"In this section, you will be presented with a series of word pairs. We are interested in how related you perceive the words in each pair to be.",Initial_Instruct,Instruct1,29673,,,-1,-1,,,,,1
66e4e41d14e1d19d88229740,u4ledupp4t,"Mediated JOLs",1,2,2025-10-20T23:08:52+00:00,82.164359092712,1,JAM_stim.csv,JAM_proc.csv,JAM,JAM,,,,,,0,Instruct,-,5,"Specifically, you will be asked to rate how often the words in each pair are used together. Assume 100 college students from around the nation gave responses to each CUE (first) word. How many of these 100 students do you think would have given the RESPONSE (second) word?",,Instruct13,80674,,,-1,-1,,,,,1
66e4e41d14e1d19d88229740,u4ledupp4t,"Mediated JOLs",1,3,2025-10-20T23:09:02+00:00,9.206661939621,1,JAM_stim.csv,JAM_proc.csv,JAM,JAM,,,,,,0,Instruct,-,5,"For example, if you are given the pair CAT - DOG, a rating of 0 indicates that DOG is not a commonly given response to the word CAT, while a score of 100 indicates that DOG would be a common response.",,Instruct14,8435,,,-1,-1,,,,,1
66e4e41d14e1d19d88229740,u4ledupp4t,"Mediated JOLs",1,4,2025-10-20T23:09:13+00:00,11.195140123367,1,JAM_stim.csv,JAM_proc.csv,JAM,JAM,,,,,,0,Instruct,-,5,"When making your ratings, it is criticial that you use the full range of the scale. You will be disqualified for only giving ratings of 0 or 100! After making your rating, you will press Enter to advance to the next pair.",,Instruct15,10407,,,-1,-1,,,,,1
66e4e41d14e1d19d88229740,u4ledupp4t,"Mediated JOLs",1,5,2025-10-20T23:09:16+00:00,2.9084668159485,1,JAM_stim.csv,JAM_proc.csv,JAM,JAM,,,,,,0,Instruct,User,-,"Before starting the study, you will complete a short practice session to get familiar with the judgment task. Press Enter when you are ready to begin.",,Instruct16,2143,,,-1,-1,,,,,1
66e4e41d14e1d19d88229740,u4ledupp4t,"Mediated JOLs",1,6,2025-10-20T23:09:30+00:00,14.043434143066,1,JAM_stim.csv,JAM_proc.csv,JAM,JAM,PITCHER,CATCHER,Practice,Practice,2,2,JAM,User,-,"How many inidividuals out of 100 would provide the second word in this pair as their immediate response to the first word? |Type your response on a scale from 0-100 and then press Enter.",Study/JOL,Practice,13228,,,11300,11675,,,,80,1
66e4e41d14e1d19d88229740,u4ledupp4t,"Mediated JOLs",1,7,2025-10-20T23:09:38+00:00,8.0387659072876,1,JAM_stim.csv,JAM_proc.csv,JAM,JAM,SCARE,FRIGHT,Practice,Practice,4,5,JAM,User,-,"How many inidividuals out of 100 would provide the second word in this pair as their immediate response to the first word? |Type your response on a scale from 0-100 and then press Enter.",Study/JOL,Practice,7150,,,4814,5085,,,,90,0.968
66e4e41d14e1d19d88229740,u4ledupp4t,"Mediated JOLs",1,8,2025-10-20T23:09:47+00:00,9.6764249801636,1,JAM_stim.csv,JAM_proc.csv,JAM,JAM,TREES,GREEN,Practice,Practice,1,3,JAM,User,-,"How many inidividuals out of 100 would provide the second word in this pair as their immediate response to the first word? |Type your response on a scale from 0-100 and then press Enter.",Study/JOL,Practice,8885,,,4616,6395,,,,60,0.919
66e4e41d14e1d19d88229740,u4ledupp4t,"Mediated JOLs",1,9,2025-10-20T23:09:56+00:00,8.237664937973,1,JAM_stim.csv,JAM_proc.csv,JAM,JAM,SPACE,JAM,Practice,Practice,5,4,JAM,User,-,"How many inidividuals out of 100 would provide the second word in this pair as their immediate response to the first word? |Type your response on a scale from 0-100 and then press Enter.",Study/JOL,Practice,7438,,,5373,6017,,,,20,1
66e4e41d14e1d19d88229740,u4ledupp4t,"Mediated JOLs",1,10,2025-10-20T23:10:05+00:00,9.8498210906982,1,JAM_stim.csv,JAM_proc.csv,JAM,JAM,PEANUT,BUTTER,Practice,Practice,3,6,JAM,User,-,"How many inidividuals out of 100 would provide the second word in this pair as their immediate response to the first word? |Type your response on a scale from 0-100 and then press Enter.",Study/JOL,Practice,9077,,,7288,7673,,,,60,1
66e4e41d14e1d19d88229740,u4ledupp4t,"Mediated JOLs",1,11,2025-10-20T23:10:10+00:00,4.6665320396423,1,JAM_stim.csv,JAM_proc.csv,JAM,JAM,,,,,,0,Instruct,User,-,"You will now begin the study. Press Enter when you are ready to begin.",,Instruct_Full_task,3815,,,-1,-1,,,,,0.857
66e4e41d14e1d19d88229740,u4ledupp4t,"Mediated JOLs",1,12,2025-10-20T23:10:45+00:00,34.940193891525,1,JAM_stim.csv,JAM_proc.csv,JAM,JAM,BEACH,BOX,Study1,M,7,13,JAM,User,-,"How many inidividuals out of 100 would provide the second word in this pair as their immediate response to the first word? |Type your response on a scale from 0-100 and then press Enter.",Study/JOL,JAM_Rating,33213,,,30037,30552,,,,30,0.973
66e4e41d14e1d19d88229740,u4ledupp4t,"Mediated JOLs",1,13,2025-10-20T23:11:04+00:00,18.798290967941,1,JAM_stim.csv,JAM_proc.csv,JAM,JAM,BENCH,HORN,Study1,U,98,28,JAM,User,-,"How many inidividuals out of 100 would provide the second word in this pair as their immediate response to the first word? |Type your response on a scale from 0-100 and then press Enter.",Study/JOL,JAM_Rating,17844,,,13517,16230,,,,30,1
66e4e41d14e1d19d88229740,u4ledupp4t,"Mediated JOLs",1,14,2025-10-20T23:11:13+00:00,9.3492660522461,1,JAM_stim.csv,JAM_proc.csv,JAM,JAM,CHISEL,HAMMER,Study1,F,123,52,JAM,User,-,"How many inidividuals out of 100 would provide the second word in this pair as their immediate response to the first word? |Type your response on a scale from 0-100 and then press Enter.",Study/JOL,JAM_Rating,8541,,,5882,6383,,,,70,1
66e4e41d14e1d19d88229740,u4ledupp4t,"Mediated JOLs",1,15,2025-10-20T23:11:41+00:00,27.600027084351,1,JAM_stim.csv,JAM_proc.csv,JAM,JAM,RAZOR,MUSCLE,Study1,M,75,38,JAM,User,-,"How many inidividuals out of 100 would provide the second word in this pair as their immediate response to the first word? |Type your response on a scale from 0-100 and then press Enter.",Study/JOL,JAM_Rating,26548,,,24475,25067,,,,20,1
66e4e41d14e1d19d88229740,u4ledupp4t,"Mediated JOLs",1,16,2025-10-20T23:11:52+00:00,11.29011797905,1,JAM_stim.csv,JAM_proc.csv,JAM,JAM,SCHOOL,STOP,Study1,M,62,96,JAM,User,-,"How many inidividuals out of 100 would provide the second word in this pair as their immediate response to the first word? |Type your response on a scale from 0-100 and then press Enter.",Study/JOL,JAM_Rating,10377,,,1865,8568,,,,20,1
66e4e41d14e1d19d88229740,u4ledupp4t,"Mediated JOLs",1,17,2025-10-20T23:11:57+00:00,5.2898519039154,1,JAM_stim.csv,JAM_proc.csv,JAM,JAM,HEAVY,FEATHER,Study1,M,68,67,JAM,User,-,"How many inidividuals out of 100 would provide the second word in this pair as their immediate response to the first word? |Type your response on a scale from 0-100 and then press Enter.",Study/JOL,JAM_Rating,4437,,,2115,2816,,,,20,1
66e4e41d14e1d19d88229740,u4ledupp4t,"Mediated JOLs",1,18,2025-10-20T23:12:07+00:00,9.8762981891632,1,JAM_stim.csv,JAM_proc.csv,JAM,JAM,EYES,SMELL,Study1,M,65,82,JAM,User,-,"How many inidividuals out of 100 would provide the second word in this pair as their immediate response to the first word? |Type your response on a scale from 0-100 and then press Enter.",Study/JOL,JAM_Rating,9063,,,6440,7744,,,,30,0.976
66e4e41d14e1d19d88229740,u4ledupp4t,"Mediated JOLs",1,19,2025-10-20T23:12:32+00:00,24.669981002808,1,JAM_stim.csv,JAM_proc.csv,JAM,JAM,SUMMER,SNOW,Study1,M,61,55,JAM,User,-,"How many inidividuals out of 100 would provide the second word in this pair as their immediate response to the first word? |Type your response on a scale from 0-100 and then press Enter.",Study/JOL,JAM_Rating,23919,,,18162,21204,,,,80,1
66e4e41d14e1d19d88229740,u4ledupp4t,"Mediated JOLs",1,20,2025-10-20T23:12:43+00:00,10.844096899033,1,JAM_stim.csv,JAM_proc.csv,JAM,JAM,WORD,SENTENCE,Study1,F,112,11,JAM,User,-,"How many inidividuals out of 100 would provide the second word in this pair as their immediate response to the first word? |Type your response on a scale from 0-100 and then press Enter.",Study/JOL,JAM_Rating,9961,,,6900,7945,,,,75,0.875
66e4e41d14e1d19d88229740,u4ledupp4t,"Mediated JOLs",1,21,2025-10-20T23:13:02+00:00,19.20650100708,1,JAM_stim.csv,JAM_proc.csv,JAM,JAM,MIRROR,CHILDREN,Study1,U,104,87,JAM,User,-,"How many inidividuals out of 100 would provide the second word in this pair as their immediate response to the first word? |Type your response on a scale from 0-100 and then press Enter.",Study/JOL,JAM_Rating,18385,,,16515,17023,,,,15,0.978
66e4e41d14e1d19d88229740,u4ledupp4t,"Mediated JOLs",1,22,2025-10-20T23:13:08+00:00,5.8495190143585,1,JAM_stim.csv,JAM_proc.csv,JAM,JAM,STRETCH,CLOTH,Study1,U,37,68,JAM,User,-,"How many inidividuals out of 100 would provide the second word in this pair as their immediate response to the first word? |Type your response on a scale from 0-100 and then press Enter.",Study/JOL,JAM_Rating,5011,,,2379,2700,,,,40,1
66e4e41d14e1d19d88229740,u4ledupp4t,"Mediated JOLs",1,23,2025-10-20T23:13:18+00:00,10.099369049072,1,JAM_stim.csv,JAM_proc.csv,JAM,JAM,TUNA,FISH,Study1,F,120,95,JAM,User,-,"How many inidividuals out of 100 would provide the second word in this pair as their immediate response to the first word? |Type your response on a scale from 0-100 and then press Enter.",Study/JOL,JAM_Rating,9324,,,2075,8258,,,,70,1
66e4e41d14e1d19d88229740,u4ledupp4t,"Mediated JOLs",1,24,2025-10-20T23:13:27+00:00,8.9266829490662,1,JAM_stim.csv,JAM_proc.csv,JAM,JAM,INCENSE,SMELL,Study1,F,128,92,JAM,User,-,"How many inidividuals out of 100 would provide the second word in this pair as their immediate response to the first word? |Type your response on a scale from 0-100 and then press Enter.",Study/JOL,JAM_Rating,7520,,,1852,5469,,,,65,1
66e4e41d14e1d19d88229740,u4ledupp4t,"Mediated JOLs",1,25,2025-10-20T23:13:36+00:00,9.5013949871063,1,JAM_stim.csv,JAM_proc.csv,JAM,JAM,ARTERY,BRONZE,Study1,U,103,34,JAM,User,-,"How many inidividuals out of 100 would provide the second word in this pair as their immediate response to the first word? |Type your response on a scale from 0-100 and then press Enter.",Study/JOL,JAM_Rating,8446,,,6509,6741,,,,60,0.952
66e4e41d14e1d19d88229740,u4ledupp4t,"Mediated JOLs",1,26,2025-10-20T23:13:44+00:00,7.2741050720215,1,JAM_stim.csv,JAM_proc.csv,JAM,JAM,HAPPY,CAR,Study1,U,92,60,JAM,User,-,"How many inidividuals out of 100 would provide the second word in this pair as their immediate response to the first word? |Type your response on a scale from 0-100 and then press Enter.",Study/JOL,JAM_Rating,6481,,,4867,5035,,,,60,1
66e4e41d14e1d19d88229740,u4ledupp4t,"Mediated JOLs",1,27,2025-10-20T23:13:52+00:00,8.3948078155518,1,JAM_stim.csv,JAM_proc.csv,JAM,JAM,KEYS,ROD,Study1,U,45,19,JAM,User,-,"How many inidividuals out of 100 would provide the second word in this pair as their immediate response to the first word? |Type your response on a scale from 0-100 and then press Enter.",Study/JOL,JAM_Rating,7540,,,6128,6333,,,,80,0.944
66e4e41d14e1d19d88229740,u4ledupp4t,"Mediated JOLs",1,28,2025-10-20T23:13:58+00:00,6.1014771461487,1,JAM_stim.csv,JAM_proc.csv,JAM,JAM,LITTER,TRASH,Study1,F,106,63,JAM,User,-,"How many inidividuals out of 100 would provide the second word in this pair as their immediate response to the first word? |Type your response on a scale from 0-100 and then press Enter.",Study/JOL,JAM_Rating,5310,,,2885,3101,,,,60,1
66e4e41d14e1d19d88229740,u4ledupp4t,"Mediated JOLs",1,29,2025-10-20T23:14:06+00:00,7.9494249820709,1,JAM_stim.csv,JAM_proc.csv,JAM,JAM,TREE,SYRUP,Study1,M,11,65,JAM,User,-,"How many inidividuals out of 100 would provide the second word in this pair as their immediate response to the first word? |Type your response on a scale from 0-100 and then press Enter.",Study/JOL,JAM_Rating,7039,,,5243,5423,,,,30,0.969
66e4e41d14e1d19d88229740,u4ledupp4t,"Mediated JOLs",1,30,2025-10-20T23:14:13+00:00,6.7222800254822,1,JAM_stim.csv,JAM_proc.csv,JAM,JAM,CIRCLE,DANCE,Study1,M,13,53,JAM,User,-,"How many inidividuals out of 100 would provide the second word in this pair as their immediate response to the first word? |Type your response on a scale from 0-100 and then press Enter.",Study/JOL,JAM_Rating,5911,,,3150,4524,,,,69,1
66e4e41d14e1d19d88229740,u4ledupp4t,"Mediated JOLs",1,31,2025-10-20T23:14:29+00:00,16.29479598999,1,JAM_stim.csv,JAM_proc.csv,JAM,JAM,DOCUMENT,PAPER,Study1,F,127,12,JAM,User,-,"How many inidividuals out of 100 would provide the second word in this pair as their immediate response to the first word? |Type your response on a scale from 0-100 and then press Enter.",Study/JOL,JAM_Rating,11490,,,9310,9537,,,,60,0.942
66e4e41d14e1d19d88229740,u4ledupp4t,"Mediated JOLs",1,32,2025-10-20T23:14:41+00:00,11.479968070984,1,JAM_stim.csv,JAM_proc.csv,JAM,JAM,WEDDING,FINGER,Study1,M,17,39,JAM,User,-,"How many inidividuals out of 100 would provide the second word in this pair as their immediate response to the first word? |Type your response on a scale from 0-100 and then press Enter.",Study/JOL,JAM_Rating,8788,,,6078,6698,,,,45,0.725
66e4e41d14e1d19d88229740,u4ledupp4t,"Mediated JOLs",1,33,2025-10-20T23:14:54+00:00,13.217647790909,1,JAM_stim.csv,JAM_proc.csv,JAM,JAM,DEATH,BUSINESS,Study1,U,99,20,JAM,User,-,"How many inidividuals out of 100 would provide the second word in this pair as their immediate response to the first word? |Type your response on a scale from 0-100 and then press Enter.",Study/JOL,JAM_Rating,12111,,,3393,10990,,,,25,0.949
66e4e41d14e1d19d88229740,u4ledupp4t,"Mediated JOLs",1,34,2025-10-20T23:15:08+00:00,14.311691999435,1,JAM_stim.csv,JAM_proc.csv,JAM,JAM,KING,VASE,Study1,U,91,66,JAM,User,-,"How many inidividuals out of 100 would provide the second word in this pair as their immediate response to the first word? |Type your response on a scale from 0-100 and then press Enter.",Study/JOL,JAM_Rating,13539,,,11598,12522,,,,15,1
66e4e41d14e1d19d88229740,u4ledupp4t,"Mediated JOLs",1,35,2025-10-20T23:15:13+00:00,4.969945192337,1,JAM_stim.csv,JAM_proc.csv,JAM,JAM,NURSE,LAWYER,Study1,M,66,83,JAM,User,-,"How many inidividuals out of 100 would provide the second word in this pair as their immediate response to the first word? |Type your response on a scale from 0-100 and then press Enter.",Study/JOL,JAM_Rating,4151,,,3027,3251,,,,70,1
66e4e41d14e1d19d88229740,u4ledupp4t,"Mediated JOLs",1,36,2025-10-20T23:15:21+00:00,7.5102980136871,1,JAM_stim.csv,JAM_proc.csv,JAM,JAM,MULE,DONKEY,Study1,F,109,45,JAM,User,-,"How many inidividuals out of 100 would provide the second word in this pair as their immediate response to the first word? |Type your response on a scale from 0-100 and then press Enter.",Study/JOL,JAM_Rating,6645,,,5563,5745,,,,70,1
66e4e41d14e1d19d88229740,u4ledupp4t,"Mediated JOLs",1,37,2025-10-20T23:15:26+00:00,5.2587468624115,1,JAM_stim.csv,JAM_proc.csv,JAM,JAM,SOAP,DRINK,Study1,M,67,69,JAM,User,-,"How many inidividuals out of 100 would provide the second word in this pair as their immediate response to the first word? |Type your response on a scale from 0-100 and then press Enter.",Study/JOL,JAM_Rating,4407,,,1997,3638,,,,13,1
66e4e41d14e1d19d88229740,u4ledupp4t,"Mediated JOLs",1,38,2025-10-20T23:15:39+00:00,13.405030012131,1,JAM_stim.csv,JAM_proc.csv,JAM,JAM,FUZZY,BANG,Study1,U,50,78,JAM,User,-,"How many inidividuals out of 100 would provide the second word in this pair as their immediate response to the first word? |Type your response on a scale from 0-100 and then press Enter.",Study/JOL,JAM_Rating,12570,,,9564,11026,,,,66,1
66e4e41d14e1d19d88229740,u4ledupp4t,"Mediated JOLs",1,39,2025-10-20T23:15:48+00:00,9.1958560943604,1,JAM_stim.csv,JAM_proc.csv,JAM,JAM,WAR,QUIET,Study1,M,8,75,JAM,User,-,"How many inidividuals out of 100 would provide the second word in this pair as their immediate response to the first word? |Type your response on a scale from 0-100 and then press Enter.",Study/JOL,JAM_Rating,8411,,,2446,5952,,,,70,1
66e4e41d14e1d19d88229740,u4ledupp4t,"Mediated JOLs",1,40,2025-10-20T23:15:56+00:00,7.7875900268555,1,JAM_stim.csv,JAM_proc.csv,JAM,JAM,BIRTHDAY,PIE,Study1,M,9,35,JAM,User,-,"How many inidividuals out of 100 would provide the second word in this pair as their immediate response to the first word? |Type your response on a scale from 0-100 and then press Enter.",Study/JOL,JAM_Rating,7020,,,3950,4905,,,,35,1
66e4e41d14e1d19d88229740,u4ledupp4t,"Mediated JOLs",1,41,2025-10-20T23:16:11+00:00,14.675982952118,1,JAM_stim.csv,JAM_proc.csv,JAM,JAM,DIETARY,SACK,Study1,U,97,24,JAM,User,-,"How many inidividuals out of 100 would provide the second word in this pair as their immediate response to the first word? |Type your response on a scale from 0-100 and then press Enter.",Study/JOL,JAM_Rating,13875,,,8110,9147,,,,20,0.952
66e4e41d14e1d19d88229740,u4ledupp4t,"Mediated JOLs",1,42,2025-10-20T23:16:16+00:00,5.2470898628235,1,JAM_stim.csv,JAM_proc.csv,JAM,JAM,WAGE,MONEY,Study1,F,107,23,JAM,User,-,"How many inidividuals out of 100 would provide the second word in this pair as their immediate response to the first word? |Type your response on a scale from 0-100 and then press Enter.",Study/JOL,JAM_Rating,4455,,,2704,2958,,,,70,1
66e4e41d14e1d19d88229740,u4ledupp4t,"Mediated JOLs",1,43,2025-10-20T23:16:21+00:00,4.9349040985107,1,JAM_stim.csv,JAM_proc.csv,JAM,JAM,CHILL,COLD,Study1,F,132,43,JAM,User,-,"How many inidividuals out of 100 would provide the second word in this pair as their immediate response to the first word? |Type your response on a scale from 0-100 and then press Enter.",Study/JOL,JAM_Rating,4161,,,2615,2800,,,,90,1
66e4e41d14e1d19d88229740,u4ledupp4t,"Mediated JOLs",1,44,2025-10-20T23:16:33+00:00,11.664640903473,1,JAM_stim.csv,JAM_proc.csv,JAM,JAM,HORNET,STING,Study1,F,130,17,JAM,User,-,"How many inidividuals out of 100 would provide the second word in this pair as their immediate response to the first word? |Type your response on a scale from 0-100 and then press Enter.",Study/JOL,JAM_Rating,10740,,,8852,9051,,,,98,1
66e4e41d14e1d19d88229740,u4ledupp4t,"Mediated JOLs",1,45,2025-10-20T23:16:38+00:00,5.4269411563873,1,JAM_stim.csv,JAM_proc.csv,JAM,JAM,FEUD,FIGHT,Study1,F,131,41,JAM,User,-,"How many inidividuals out of 100 would provide the second word in this pair as their immediate response to the first word? |Type your response on a scale from 0-100 and then press Enter.",Study/JOL,JAM_Rating,4608,,,2861,3018,,,,99,1
66e4e41d14e1d19d88229740,u4ledupp4t,"Mediated JOLs",1,46,2025-10-20T23:16:47+00:00,8.4088759422302,1,JAM_stim.csv,JAM_proc.csv,JAM,JAM,CRY,BOTTLE,Study1,M,16,33,JAM,User,-,"How many inidividuals out of 100 would provide the second word in this pair as their immediate response to the first word? |Type your response on a scale from 0-100 and then press Enter.",Study/JOL,JAM_Rating,7597,,,4627,4851,,,,45,0.971
66e4e41d14e1d19d88229740,u4ledupp4t,"Mediated JOLs",1,47,2025-10-20T23:16:57+00:00,10.566437959671,1,JAM_stim.csv,JAM_proc.csv,JAM,JAM,CAKE,HAND,Study1,U,49,70,JAM,User,-,"How many inidividuals out of 100 would provide the second word in this pair as their immediate response to the first word? |Type your response on a scale from 0-100 and then press Enter.",Study/JOL,JAM_Rating,9771,,,3559,8517,,,,34,1
66e4e41d14e1d19d88229740,u4ledupp4t,"Mediated JOLs",1,48,2025-10-20T23:17:04+00:00,6.7374670505524,1,JAM_stim.csv,JAM_proc.csv,JAM,JAM,BOTH,OUNCE,Study1,U,102,76,JAM,User,-,"How many inidividuals out of 100 would provide the second word in this pair as their immediate response to the first word? |Type your response on a scale from 0-100 and then press Enter.",Study/JOL,JAM_Rating,5845,,,4236,5074,,,,25,0.931
66e4e41d14e1d19d88229740,u4ledupp4t,"Mediated JOLs",1,49,2025-10-20T23:17:09+00:00,4.6659169197083,1,JAM_stim.csv,JAM_proc.csv,JAM,JAM,PANTS,COLLAR,Study1,M,63,57,JAM,User,-,"How many inidividuals out of 100 would provide the second word in this pair as their immediate response to the first word? |Type your response on a scale from 0-100 and then press Enter.",Study/JOL,JAM_Rating,3866,,,2335,2532,,,,60,1
66e4e41d14e1d19d88229740,u4ledupp4t,"Mediated JOLs",1,50,2025-10-20T23:17:19+00:00,10.234770059586,1,JAM_stim.csv,JAM_proc.csv,JAM,JAM,CHERRY,RED,Study1,F,125,61,JAM,User,-,"How many inidividuals out of 100 would provide the second word in this pair as their immediate response to the first word? |Type your response on a scale from 0-100 and then press Enter.",Study/JOL,JAM_Rating,8565,,,6875,7075,,,,57,1
66e4e41d14e1d19d88229740,u4ledupp4t,"Mediated JOLs",1,51,2025-10-20T23:17:32+00:00,13.052921056747,1,JAM_stim.csv,JAM_proc.csv,JAM,JAM,CASH,STUDY,Study1,U,105,18,JAM,User,-,"How many inidividuals out of 100 would provide the second word in this pair as their immediate response to the first word? |Type your response on a scale from 0-100 and then press Enter.",Study/JOL,JAM_Rating,11630,,,10214,11005,,,,20,1
66e4e41d14e1d19d88229740,u4ledupp4t,"Mediated JOLs",1,52,2025-10-20T23:17:42+00:00,9.9838190078735,1,JAM_stim.csv,JAM_proc.csv,JAM,JAM,CREDIT,CARD,Study1,F,118,71,JAM,User,-,"How many inidividuals out of 100 would provide the second word in this pair as their immediate response to the first word? |Type your response on a scale from 0-100 and then press Enter.",Study/JOL,JAM_Rating,8073,,,6028,6274,,,,90,1
66e4e41d14e1d19d88229740,u4ledupp4t,"Mediated JOLs",1,53,2025-10-20T23:18:49+00:00,67.621810913086,1,JAM_stim.csv,JAM_proc.csv,JAM,JAM,HORSE,WHEEL,Study1,M,14,47,JAM,User,-,"How many inidividuals out of 100 would provide the second word in this pair as their immediate response to the first word? |Type your response on a scale from 0-100 and then press Enter.",Study/JOL,JAM_Rating,66052,,,64526,64880,,,,26,0.994
66e4e41d14e1d19d88229740,u4ledupp4t,"Mediated JOLs",1,54,2025-10-20T23:19:12+00:00,22.624128103256,1,JAM_stim.csv,JAM_proc.csv,JAM,JAM,NAP,SLEEP,Study1,F,114,31,JAM,User,-,"How many inidividuals out of 100 would provide the second word in this pair as their immediate response to the first word? |Type your response on a scale from 0-100 and then press Enter.",Study/JOL,JAM_Rating,21837,,,20757,20959,,,,98,1
66e4e41d14e1d19d88229740,u4ledupp4t,"Mediated JOLs",1,55,2025-10-20T23:19:21+00:00,8.4362800121307,1,JAM_stim.csv,JAM_proc.csv,JAM,JAM,BLAZE,FIRE,Study1,F,126,15,JAM,User,-,"How many inidividuals out of 100 would provide the second word in this pair as their immediate response to the first word? |Type your response on a scale from 0-100 and then press Enter.",Study/JOL,JAM_Rating,7581,,,5090,6929,,,,89,1
66e4e41d14e1d19d88229740,u4ledupp4t,"Mediated JOLs",1,56,2025-10-20T23:19:26+00:00,5.5237939357758,1,JAM_stim.csv,JAM_proc.csv,JAM,JAM,BAT,BOUNCE,Study1,M,12,46,JAM,User,-,"How many inidividuals out of 100 would provide the second word in this pair as their immediate response to the first word? |Type your response on a scale from 0-100 and then press Enter.",Study/JOL,JAM_Rating,4717,,,3245,3904,,,,39,1
66e4e41d14e1d19d88229740,u4ledupp4t,"Mediated JOLs",1,57,2025-10-20T23:19:31+00:00,5.1537730693817,1,JAM_stim.csv,JAM_proc.csv,JAM,JAM,SIP,DRINK,Study1,F,117,77,JAM,User,-,"How many inidividuals out of 100 would provide the second word in this pair as their immediate response to the first word? |Type your response on a scale from 0-100 and then press Enter.",Study/JOL,JAM_Rating,4302,,,2482,3661,,,,70,1
66e4e41d14e1d19d88229740,u4ledupp4t,"Mediated JOLs",1,58,2025-10-20T23:19:36+00:00,4.9306848049164,1,JAM_stim.csv,JAM_proc.csv,JAM,JAM,MEAT,KEYS,Study1,U,41,30,JAM,User,-,"How many inidividuals out of 100 would provide the second word in this pair as their immediate response to the first word? |Type your response on a scale from 0-100 and then press Enter.",Study/JOL,JAM_Rating,4069,,,2042,3584,,,,12,1
66e4e41d14e1d19d88229740,u4ledupp4t,"Mediated JOLs",1,59,2025-10-20T23:19:59+00:00,23.312826156616,1,JAM_stim.csv,JAM_proc.csv,JAM,JAM,VEHICLE,CHARM,Study1,U,40,32,JAM,User,-,"How many inidividuals out of 100 would provide the second word in this pair as their immediate response to the first word? |Type your response on a scale from 0-100 and then press Enter.",Study/JOL,JAM_Rating,22419,,,20261,21825,,,,33,1
66e4e41d14e1d19d88229740,u4ledupp4t,"Mediated JOLs",1,60,2025-10-20T23:20:05+00:00,5.445093870163,1,JAM_stim.csv,JAM_proc.csv,JAM,JAM,SHELL,SHAKE,Study1,U,43,48,JAM,User,-,"How many inidividuals out of 100 would provide the second word in this pair as their immediate response to the first word? |Type your response on a scale from 0-100 and then press Enter.",Study/JOL,JAM_Rating,4546,,,3697,4211,,,,24,1
66e4e41d14e1d19d88229740,u4ledupp4t,"Mediated JOLs",1,61,2025-10-20T23:20:17+00:00,11.778583049774,1,JAM_stim.csv,JAM_proc.csv,JAM,JAM,HERD,COW,Study1,F,133,22,JAM,User,-,"How many inidividuals out of 100 would provide the second word in this pair as their immediate response to the first word? |Type your response on a scale from 0-100 and then press Enter.",Study/JOL,JAM_Rating,10883,,,9855,10245,,,,80,1
66e4e41d14e1d19d88229740,u4ledupp4t,"Mediated JOLs",1,62,2025-10-20T23:20:21+00:00,4.5834090709686,1,JAM_stim.csv,JAM_proc.csv,JAM,JAM,ROOT,PLANT,Study1,F,110,88,JAM,User,-,"How many inidividuals out of 100 would provide the second word in this pair as their immediate response to the first word? |Type your response on a scale from 0-100 and then press Enter.",Study/JOL,JAM_Rating,3755,,,2840,3034,,,,70,1
66e4e41d14e1d19d88229740,u4ledupp4t,"Mediated JOLs",1,63,2025-10-20T23:20:29+00:00,7.4790308475494,1,JAM_stim.csv,JAM_proc.csv,JAM,JAM,ROUGH,SILK,Study1,M,10,81,JAM,User,-,"How many inidividuals out of 100 would provide the second word in this pair as their immediate response to the first word? |Type your response on a scale from 0-100 and then press Enter.",Study/JOL,JAM_Rating,6593,,,5339,5900,,,,78,1
66e4e41d14e1d19d88229740,u4ledupp4t,"Mediated JOLs",1,64,2025-10-20T23:20:37+00:00,8.6176161766052,1,JAM_stim.csv,JAM_proc.csv,JAM,JAM,CEILING,CARPET,Study1,M,15,74,JAM,User,-,"How many inidividuals out of 100 would provide the second word in this pair as their immediate response to the first word? |Type your response on a scale from 0-100 and then press Enter.",Study/JOL,JAM_Rating,7776,,,6351,6509,,,,57,0.893
66e4e41d14e1d19d88229740,u4ledupp4t,"Mediated JOLs",1,65,2025-10-20T23:20:42+00:00,4.3396718502045,1,JAM_stim.csv,JAM_proc.csv,JAM,JAM,REALITY,ISLAND,Study1,M,64,86,JAM,User,-,"How many inidividuals out of 100 would provide the second word in this pair as their immediate response to the first word? |Type your response on a scale from 0-100 and then press Enter.",Study/JOL,JAM_Rating,2757,,,1419,1901,,,,78,1
66e4e41d14e1d19d88229740,u4ledupp4t,"Mediated JOLs",1,66,2025-10-20T23:20:46+00:00,4.3323171138763,1,JAM_stim.csv,JAM_proc.csv,JAM,JAM,AFFECTION,LOVE,Study1,F,116,62,JAM,User,-,"How many inidividuals out of 100 would provide the second word in this pair as their immediate response to the first word? |Type your response on a scale from 0-100 and then press Enter.",Study/JOL,JAM_Rating,3450,,,2714,2866,,,,99,1
66e4e41d14e1d19d88229740,u4ledupp4t,"Mediated JOLs",1,67,2025-10-20T23:20:52+00:00,5.5674979686737,1,JAM_stim.csv,JAM_proc.csv,JAM,JAM,CACTUS,PLANT,Study1,F,121,50,JAM,User,-,"How many inidividuals out of 100 would provide the second word in this pair as their immediate response to the first word? |Type your response on a scale from 0-100 and then press Enter.",Study/JOL,JAM_Rating,4753,,,3997,4158,,,,99,1
66e4e41d14e1d19d88229740,u4ledupp4t,"Mediated JOLs",1,68,2025-10-20T23:20:56+00:00,4.1177649497986,1,JAM_stim.csv,JAM_proc.csv,JAM,JAM,OVEN,BASKET,Study1,M,71,59,JAM,User,-,"How many inidividuals out of 100 would provide the second word in this pair as their immediate response to the first word? |Type your response on a scale from 0-100 and then press Enter.",Study/JOL,JAM_Rating,3328,,,2033,2264,,,,67,1
66e4e41d14e1d19d88229740,u4ledupp4t,"Mediated JOLs",1,69,2025-10-20T23:21:01+00:00,5.4067530632019,1,JAM_stim.csv,JAM_proc.csv,JAM,JAM,LION,STRIPES,Study1,M,6,27,JAM,User,-,"How many inidividuals out of 100 would provide the second word in this pair as their immediate response to the first word? |Type your response on a scale from 0-100 and then press Enter.",Study/JOL,JAM_Rating,4562,,,2806,3793,,,,89,1
66e4e41d14e1d19d88229740,u4ledupp4t,"Mediated JOLs",1,70,2025-10-20T23:21:10+00:00,9.2631139755249,1,JAM_stim.csv,JAM_proc.csv,JAM,JAM,PUSH,CLUTTER,Study1,U,96,25,JAM,User,-,"How many inidividuals out of 100 would provide the second word in this pair as their immediate response to the first word? |Type your response on a scale from 0-100 and then press Enter.",Study/JOL,JAM_Rating,8468,,,5828,6094,,,,67,1
66e4e41d14e1d19d88229740,u4ledupp4t,"Mediated JOLs",1,71,2025-10-20T23:21:17+00:00,6.8858599662781,1,JAM_stim.csv,JAM_proc.csv,JAM,JAM,HYGIENE,CLEAN,Study1,F,113,37,JAM,User,-,"How many inidividuals out of 100 would provide the second word in this pair as their immediate response to the first word? |Type your response on a scale from 0-100 and then press Enter.",Study/JOL,JAM_Rating,6055,,,3087,4542,,,,95,0.964
66e4e41d14e1d19d88229740,u4ledupp4t,"Mediated JOLs",1,72,2025-10-20T23:21:24+00:00,6.3667740821838,1,JAM_stim.csv,JAM_proc.csv,JAM,JAM,LISTEN,FICTION,Study1,U,44,54,JAM,User,-,"How many inidividuals out of 100 would provide the second word in this pair as their immediate response to the first word? |Type your response on a scale from 0-100 and then press Enter.",Study/JOL,JAM_Rating,5496,,,3137,4065,,,,26,1
66e4e41d14e1d19d88229740,u4ledupp4t,"Mediated JOLs",1,73,2025-10-20T23:21:31+00:00,7.1142580509186,1,JAM_stim.csv,JAM_proc.csv,JAM,JAM,CRACKLE,ELECTION,Study1,U,39,10,JAM,User,-,"How many inidividuals out of 100 would provide the second word in this pair as their immediate response to the first word? |Type your response on a scale from 0-100 and then press Enter.",Study/JOL,JAM_Rating,6226,,,4370,5327,,,,26,0.893
66e4e41d14e1d19d88229740,u4ledupp4t,"Mediated JOLs",1,74,2025-10-20T23:21:38+00:00,7.3769989013672,1,JAM_stim.csv,JAM_proc.csv,JAM,JAM,SUGAR,RIDDLE,Study1,U,95,44,JAM,User,-,"How many inidividuals out of 100 would provide the second word in this pair as their immediate response to the first word? |Type your response on a scale from 0-100 and then press Enter.",Study/JOL,JAM_Rating,6544,,,4626,5627,,,,37,0.935
66e4e41d14e1d19d88229740,u4ledupp4t,"Mediated JOLs",1,75,2025-10-20T23:21:47+00:00,9.2651660442352,1,JAM_stim.csv,JAM_proc.csv,JAM,JAM,WASP,BUG,Study1,F,134,9,JAM,User,-,"How many inidividuals out of 100 would provide the second word in this pair as their immediate response to the first word? |Type your response on a scale from 0-100 and then press Enter.",Study/JOL,JAM_Rating,8305,,,4479,5092,,,,70,0.974
66e4e41d14e1d19d88229740,u4ledupp4t,"Mediated JOLs",1,76,2025-10-20T23:21:54+00:00,6.8721768856049,1,JAM_stim.csv,JAM_proc.csv,JAM,JAM,SOON,BELT,Study1,U,46,8,JAM,User,-,"How many inidividuals out of 100 would provide the second word in this pair as their immediate response to the first word? |Type your response on a scale from 0-100 and then press Enter.",Study/JOL,JAM_Rating,5881,,,4562,5212,,,,38,0.913
66e4e41d14e1d19d88229740,u4ledupp4t,"Mediated JOLs",1,77,2025-10-20T23:22:03+00:00,9.1055860519409,1,JAM_stim.csv,JAM_proc.csv,JAM,JAM,GIVE,STEAK,Study1,U,38,89,JAM,User,-,"How many inidividuals out of 100 would provide the second word in this pair as their immediate response to the first word? |Type your response on a scale from 0-100 and then press Enter.",Study/JOL,JAM_Rating,8256,,,3902,6503,,,,45,0.974
66e4e41d14e1d19d88229740,u4ledupp4t,"Mediated JOLs",1,78,2025-10-20T23:22:10+00:00,6.3755791187286,1,JAM_stim.csv,JAM_proc.csv,JAM,JAM,BRIDGE,WATER,Study1,F,135,14,JAM,User,-,"How many inidividuals out of 100 would provide the second word in this pair as their immediate response to the first word? |Type your response on a scale from 0-100 and then press Enter.",Study/JOL,JAM_Rating,5551,,,4605,5041,,,,67,0.92
66e4e41d14e1d19d88229740,u4ledupp4t,"Mediated JOLs",1,79,2025-10-20T23:22:39+00:00,29.460784912109,1,JAM_stim.csv,JAM_proc.csv,JAM,JAM,SIGN,TICK,Study1,U,47,91,JAM,User,-,"How many inidividuals out of 100 would provide the second word in this pair as their immediate response to the first word? |Type your response on a scale from 0-100 and then press Enter.",Study/JOL,JAM_Rating,27899,,,27105,27279,,,,67,1
66e4e41d14e1d19d88229740,u4ledupp4t,"Mediated JOLs",1,80,2025-10-20T23:22:44+00:00,5.0100998878479,1,JAM_stim.csv,JAM_proc.csv,JAM,JAM,CHOP,CUT,Study1,F,122,49,JAM,User,-,"How many inidividuals out of 100 would provide the second word in this pair as their immediate response to the first word? |Type your response on a scale from 0-100 and then press Enter.",Study/JOL,JAM_Rating,3452,,,558,2926,,,,36,1
66e4e41d14e1d19d88229740,u4ledupp4t,"Mediated JOLs",1,81,2025-10-20T23:22:48+00:00,3.9959001541138,1,JAM_stim.csv,JAM_proc.csv,JAM,JAM,DAY,DARK,Study1,M,18,56,JAM,User,-,"How many inidividuals out of 100 would provide the second word in this pair as their immediate response to the first word? |Type your response on a scale from 0-100 and then press Enter.",Study/JOL,JAM_Rating,3204,,,1869,2606,,,,89,1
66e4e41d14e1d19d88229740,u4ledupp4t,"Mediated JOLs",1,82,2025-10-20T23:22:53+00:00,4.5372338294983,1,JAM_stim.csv,JAM_proc.csv,JAM,JAM,PILL,BOTTLE,Study1,F,115,21,JAM,User,-,"How many inidividuals out of 100 would provide the second word in this pair as their immediate response to the first word? |Type your response on a scale from 0-100 and then press Enter.",Study/JOL,JAM_Rating,3738,,,2918,3141,,,,70,1
66e4e41d14e1d19d88229740,u4ledupp4t,"Mediated JOLs",1,83,2025-10-20T23:23:00+00:00,6.8082251548767,1,JAM_stim.csv,JAM_proc.csv,JAM,JAM,SCALP,HEAD,Study1,F,108,90,JAM,User,-,"How many inidividuals out of 100 would provide the second word in this pair as their immediate response to the first word? |Type your response on a scale from 0-100 and then press Enter.",Study/JOL,JAM_Rating,5957,,,4737,5260,,,,90,1
66e4e41d14e1d19d88229740,u4ledupp4t,"Mediated JOLs",1,84,2025-10-20T23:23:36+00:00,36.238942861557,1,JAM_stim.csv,JAM_proc.csv,JAM,JAM,VALLEY,PEAK,Study1,M,73,80,JAM,User,-,"How many inidividuals out of 100 would provide the second word in this pair as their immediate response to the first word? |Type your response on a scale from 0-100 and then press Enter.",Study/JOL,JAM_Rating,34635,,,33496,34063,,,,57,1
66e4e41d14e1d19d88229740,u4ledupp4t,"Mediated JOLs",1,85,2025-10-20T23:23:48+00:00,11.880034208298,1,JAM_stim.csv,JAM_proc.csv,JAM,JAM,RAKE,SEED,Study1,M,69,58,JAM,User,-,"How many inidividuals out of 100 would provide the second word in this pair as their immediate response to the first word? |Type your response on a scale from 0-100 and then press Enter.",Study/JOL,JAM_Rating,10647,,,8942,9703,,,,45,1
66e4e41d14e1d19d88229740,u4ledupp4t,"Mediated JOLs",1,86,2025-10-20T23:23:52+00:00,4.187915802002,1,JAM_stim.csv,JAM_proc.csv,JAM,JAM,WINDOW,KNOB,Study1,M,74,94,JAM,User,-,"How many inidividuals out of 100 would provide the second word in this pair as their immediate response to the first word? |Type your response on a scale from 0-100 and then press Enter.",Study/JOL,JAM_Rating,3356,,,1875,2331,,,,67,1
66e4e41d14e1d19d88229740,u4ledupp4t,"Mediated JOLs",1,87,2025-10-20T23:23:57+00:00,5.160001039505,1,JAM_stim.csv,JAM_proc.csv,JAM,JAM,STRONG,ACCIDENT,Study1,U,94,29,JAM,User,-,"How many inidividuals out of 100 would provide the second word in this pair as their immediate response to the first word? |Type your response on a scale from 0-100 and then press Enter.",Study/JOL,JAM_Rating,2963,,,1872,2075,,,,34,1
66e4e41d14e1d19d88229740,u4ledupp4t,"Mediated JOLs",1,88,2025-10-20T23:24:13+00:00,15.61931014061,1,JAM_stim.csv,JAM_proc.csv,JAM,JAM,SICK,HIDE,Study1,U,100,64,JAM,User,-,"How many inidividuals out of 100 would provide the second word in this pair as their immediate response to the first word? |Type your response on a scale from 0-100 and then press Enter.",Study/JOL,JAM_Rating,14024,,,12605,13362,,,,46,1
66e4e41d14e1d19d88229740,u4ledupp4t,"Mediated JOLs",1,89,2025-10-20T23:24:23+00:00,10.018338918686,1,JAM_stim.csv,JAM_proc.csv,JAM,JAM,SWAN,BIRD,Study1,F,111,42,JAM,User,-,"How many inidividuals out of 100 would provide the second word in this pair as their immediate response to the first word? |Type your response on a scale from 0-100 and then press Enter.",Study/JOL,JAM_Rating,8489,,,7309,7846,,,,89,1
66e4e41d14e1d19d88229740,u4ledupp4t,"Mediated JOLs",1,90,2025-10-20T23:24:39+00:00,16.508505105972,1,JAM_stim.csv,JAM_proc.csv,JAM,JAM,LEAGUE,BASEBALL,Study1,F,129,51,JAM,User,-,"How many inidividuals out of 100 would provide the second word in this pair as their immediate response to the first word? |Type your response on a scale from 0-100 and then press Enter.",Study/JOL,JAM_Rating,14836,,,13944,14262,,,,99,1
66e4e41d14e1d19d88229740,u4ledupp4t,"Mediated JOLs",1,91,2025-10-20T23:24:44+00:00,5.0598449707031,1,JAM_stim.csv,JAM_proc.csv,JAM,JAM,ART,WOLF,Study1,U,93,7,JAM,User,-,"How many inidividuals out of 100 would provide the second word in this pair as their immediate response to the first word? |Type your response on a scale from 0-100 and then press Enter.",Study/JOL,JAM_Rating,4183,,,1216,1906,,,,67,1
66e4e41d14e1d19d88229740,u4ledupp4t,"Mediated JOLs",1,92,2025-10-20T23:24:49+00:00,4.5882518291473,1,JAM_stim.csv,JAM_proc.csv,JAM,JAM,TEMPERATURE,MORNING,Study1,U,48,72,JAM,User,-,"How many inidividuals out of 100 would provide the second word in this pair as their immediate response to the first word? |Type your response on a scale from 0-100 and then press Enter.",Study/JOL,JAM_Rating,3756,,,2501,2931,,,,34,1
66e4e41d14e1d19d88229740,u4ledupp4t,"Mediated JOLs",1,93,2025-10-20T23:25:04+00:00,15.276693105698,1,JAM_stim.csv,JAM_proc.csv,JAM,JAM,LEASE,TOIL,Study1,U,101,36,JAM,User,-,"How many inidividuals out of 100 would provide the second word in this pair as their immediate response to the first word? |Type your response on a scale from 0-100 and then press Enter.",Study/JOL,JAM_Rating,13665,,,12727,12926,,,,67,1
66e4e41d14e1d19d88229740,u4ledupp4t,"Mediated JOLs",1,94,2025-10-20T23:25:06+00:00,2.3646960258484,1,JAM_stim.csv,JAM_proc.csv,JAM,JAM,HARD,COTTON,Study1,M,20,84,JAM,User,-,"How many inidividuals out of 100 would provide the second word in this pair as their immediate response to the first word? |Type your response on a scale from 0-100 and then press Enter.",Study/JOL,JAM_Rating,1538,,,529,741,,,,45,1
66e4e41d14e1d19d88229740,u4ledupp4t,"Mediated JOLs",1,95,2025-10-20T23:25:09+00:00,2.4204988479614,1,JAM_stim.csv,JAM_proc.csv,JAM,JAM,TRAP,CAVE,Study1,M,70,73,JAM,User,-,"How many inidividuals out of 100 would provide the second word in this pair as their immediate response to the first word? |Type your response on a scale from 0-100 and then press Enter.",Study/JOL,JAM_Rating,1591,,,663,893,,,,66,1
66e4e41d14e1d19d88229740,u4ledupp4t,"Mediated JOLs",1,96,2025-10-20T23:25:11+00:00,2.0059390068054,1,JAM_stim.csv,JAM_proc.csv,JAM,JAM,GRILL,THIGH,Study1,M,72,85,JAM,User,-,"How many inidividuals out of 100 would provide the second word in this pair as their immediate response to the first word? |Type your response on a scale from 0-100 and then press Enter.",Study/JOL,JAM_Rating,1160,,,406,602,,,,57,1
66e4e41d14e1d19d88229740,u4ledupp4t,"Mediated JOLs",1,97,2025-10-20T23:25:14+00:00,2.885941028595,1,JAM_stim.csv,JAM_proc.csv,JAM,JAM,MAZE,PHONE,Study1,U,42,93,JAM,User,-,"How many inidividuals out of 100 would provide the second word in this pair as their immediate response to the first word? |Type your response on a scale from 0-100 and then press Enter.",Study/JOL,JAM_Rating,2061,,,1084,1420,,,,46,1
66e4e41d14e1d19d88229740,u4ledupp4t,"Mediated JOLs",1,98,2025-10-20T23:25:18+00:00,4.237300157547,1,JAM_stim.csv,JAM_proc.csv,JAM,JAM,ATTIRE,CLOTHES,Study1,F,124,40,JAM,User,-,"How many inidividuals out of 100 would provide the second word in this pair as their immediate response to the first word? |Type your response on a scale from 0-100 and then press Enter.",Study/JOL,JAM_Rating,3448,,,1255,2639,,,,34,1
66e4e41d14e1d19d88229740,u4ledupp4t,"Mediated JOLs",1,99,2025-10-20T23:25:23+00:00,4.8825759887695,1,JAM_stim.csv,JAM_proc.csv,JAM,JAM,TOOTH,HAIR,Study1,M,19,16,JAM,User,-,"How many inidividuals out of 100 would provide the second word in this pair as their immediate response to the first word? |Type your response on a scale from 0-100 and then press Enter.",Study/JOL,JAM_Rating,3315,,,1504,2670,,,,88,1
66e4e41d14e1d19d88229740,u4ledupp4t,"Mediated JOLs",1,100,2025-10-20T23:25:28+00:00,5.2912728786469,1,JAM_stim.csv,JAM_proc.csv,JAM,JAM,ORCHID,FLOWER,Study1,F,119,26,JAM,User,-,"How many inidividuals out of 100 would provide the second word in this pair as their immediate response to the first word? |Type your response on a scale from 0-100 and then press Enter.",Study/JOL,JAM_Rating,4474,,,3424,3663,,,,87,1
66e4e41d14e1d19d88229740,u4ledupp4t,"Mediated JOLs",1,101,2025-10-20T23:25:34+00:00,5.9044699668884,1,JAM_stim.csv,JAM_proc.csv,JAM,JAM,MIRROR,MAROON,Study1,U,36,79,JAM,User,-,"How many inidividuals out of 100 would provide the second word in this pair as their immediate response to the first word? |Type your response on a scale from 0-100 and then press Enter.",Study/JOL,JAM_Rating,4262,,,3317,3530,,,,87,1
66e4e41d14e1d19d88229740,u4ledupp4t,"Mediated JOLs",1,102,2025-10-20T23:25:37+00:00,3.0881659984589,1,JAM_stim.csv,JAM_proc.csv,JAM,JAM,,,,,,0,Instruct,User,-,"You have completed this section. Please press Enter.",,Instruct7,2250,,,-1,-1,,,,,1
66e4e41d14e1d19d88229740,u4ledupp4t,"Mediated JOLs",1,103,2025-10-20T23:25:40+00:00,3.2176280021667,1,JAM_stim.csv,JAM_proc.csv,JAM,JAM,,,,,,0,Instruct,User,-,"The following screen will ask you a few questions abour your experience today. You must complete these questions to receive credit.",,Instruct8,1701,,,-1,-1,,,,,1
