Username,ID,ExperimentName,Session,Trial,Date,TimeDif,"Condition Number","Stimuli File","Order File","Condition Description","Condition Notes",Stimuli*Cue,Stimuli*Answer,Stimuli*Shuffle,"Stimuli*Stimuli Notes",Stimuli*Value,Procedure*Item,"Procedure*Trial Type","Procedure*Max Time","Procedure*Min Time",Procedure*Text,"Procedure*Procedure Notes",Procedure*Shuffle,Response*RT,Response*Response,Response*Accuracy,Response*RTfirst,Response*RTlast,Response*strictAcc,Response*lenientAcc,Response*focus,Response*Focus
M20339108_KD,v4ew08fn15,"Mediated JOLs",1,1,2024-11-08T21:12:31+00:00,5.9508430957794,3,versionB_stim.csv,ReadVersion.csv,Read,Read2,,,,,,0,Instruct,-,5,"In this section, you will be presented with a series of word pairs. Please study each word pair! Your memory will be tested!",Initial_Instruct,Instruct1,5751,,,-1,-1,,,,1
M20339108_KD,v4ew08fn15,"Mediated JOLs",1,2,2024-11-08T21:12:33+00:00,2.2574288845062,3,versionB_stim.csv,ReadVersion.csv,Read,Read2,,,,,,0,Instruct,User,-,"You will now begin. Press Enter when you are ready to begin.",,Instruct16,2050,,,-1,-1,,,,1
M20339108_KD,v4ew08fn15,"Mediated JOLs",1,3,2024-11-08T21:12:38+00:00,5.3084740638733,3,versionB_stim.csv,ReadVersion.csv,Read,Read2,DAYS,WEAKS,BUFFER3,Buffer,1,2,Study,User,-,,Study/JOL,BUFFER,5091,,,-1,-1,,,,1
M20339108_KD,v4ew08fn15,"Mediated JOLs",1,4,2024-11-08T21:12:41+00:00,2.6913850307465,3,versionB_stim.csv,ReadVersion.csv,Read,Read2,TOOL,SHED,BUFFER3,Buffer,3,5,Study,User,-,,Study/JOL,BUFFER,2424,,,-1,-1,,,,1
M20339108_KD,v4ew08fn15,"Mediated JOLs",1,5,2024-11-08T21:12:44+00:00,3.0793590545654,3,versionB_stim.csv,ReadVersion.csv,Read,Read2,MONTH,YEAR,BUFFER3,Buffer,2,6,Study,User,-,,Study/JOL,BUFFER,2822,,,-1,-1,,,,1
M20339108_KD,v4ew08fn15,"Mediated JOLs",1,6,2024-11-08T21:12:48+00:00,3.9699838161469,3,versionB_stim.csv,ReadVersion.csv,Read,Read2,OCTOBER,SPOOKY,BUFFER3,Buffer,5,4,Study,User,-,,Study/JOL,BUFFER,3765,,,-1,-1,,,,1
M20339108_KD,v4ew08fn15,"Mediated JOLs",1,7,2024-11-08T21:12:53+00:00,4.5043461322784,3,versionB_stim.csv,ReadVersion.csv,Read,Read2,SPRING,MARCH,BUFFER3,Buffer,4,3,Study,User,-,,Study/JOL,BUFFER,4260,,,-1,-1,,,,1
M20339108_KD,v4ew08fn15,"Mediated JOLs",1,8,2024-11-08T21:12:58+00:00,4.8514580726624,3,versionB_stim.csv,ReadVersion.csv,Read,Read2,EYES,TASTE,Study2,M,10,17,Study,User,-,,Study/JOL,"Study Phase",4618,,,-1,-1,,,,1
M20339108_KD,v4ew08fn15,"Mediated JOLs",1,9,2024-11-08T21:13:01+00:00,3.2158699035645,3,versionB_stim.csv,ReadVersion.csv,Read,Read2,SUGAR,RIDDLE,Study2,U,40,35,Study,User,-,,Study/JOL,"Study Phase",2990,,,-1,-1,,,,1
M20339108_KD,v4ew08fn15,"Mediated JOLs",1,10,2024-11-08T21:13:04+00:00,2.830069065094,3,versionB_stim.csv,ReadVersion.csv,Read,Read2,CHOP,CUT,Study2,F,22,38,Study,User,-,,Study/JOL,"Study Phase",2553,,,-1,-1,,,,1
M20339108_KD,v4ew08fn15,"Mediated JOLs",1,11,2024-11-08T21:13:09+00:00,4.9513759613037,3,versionB_stim.csv,ReadVersion.csv,Read,Read2,CASH,LEG,Study2,U,50,47,Study,User,-,,Study/JOL,"Study Phase",4694,,,-1,-1,,,,1
M20339108_KD,v4ew08fn15,"Mediated JOLs",1,12,2024-11-08T21:13:12+00:00,3.6827828884125,3,versionB_stim.csv,ReadVersion.csv,Read,Read2,REALITY,WATER,Study2,M,9,34,Study,User,-,,Study/JOL,"Study Phase",3447,,,-1,-1,,,,1
M20339108_KD,v4ew08fn15,"Mediated JOLs",1,13,2024-11-08T21:13:15+00:00,3.2951130867004,3,versionB_stim.csv,ReadVersion.csv,Read,Read2,TRAP,MAN,Study2,M,15,28,Study,User,-,,Study/JOL,"Study Phase",3026,,,-1,-1,,,,1
M20339108_KD,v4ew08fn15,"Mediated JOLs",1,14,2024-11-08T21:13:19+00:00,3.2550060749054,3,versionB_stim.csv,ReadVersion.csv,Read,Read2,GRILL,LEG,Study2,M,17,15,Study,User,-,,Study/JOL,"Study Phase",3074,,,-1,-1,,,,1
M20339108_KD,v4ew08fn15,"Mediated JOLs",1,15,2024-11-08T21:13:22+00:00,3.402813911438,3,versionB_stim.csv,ReadVersion.csv,Read,Read2,SUMMER,WHITE,Study2,M,6,51,Study,User,-,,Study/JOL,"Study Phase",3154,,,-1,-1,,,,1
M20339108_KD,v4ew08fn15,"Mediated JOLs",1,16,2024-11-08T21:13:25+00:00,2.9143829345703,3,versionB_stim.csv,ReadVersion.csv,Read,Read2,HAPPY,CAR,Study2,U,37,30,Study,User,-,,Study/JOL,"Study Phase",2641,,,-1,-1,,,,1
M20339108_KD,v4ew08fn15,"Mediated JOLs",1,17,2024-11-08T21:13:29+00:00,3.7045030593872,3,versionB_stim.csv,ReadVersion.csv,Read,Read2,PANTS,DOG,Study2,M,8,25,Study,User,-,,Study/JOL,"Study Phase",3463,,,-1,-1,,,,1
M20339108_KD,v4ew08fn15,"Mediated JOLs",1,18,2024-11-08T21:13:33+00:00,4.047306060791,3,versionB_stim.csv,ReadVersion.csv,Read,Read2,FEUD,FIGHT,Study2,F,31,27,Study,User,-,,Study/JOL,"Study Phase",3811,,,-1,-1,,,,1
M20339108_KD,v4ew08fn15,"Mediated JOLs",1,19,2024-11-08T21:13:35+00:00,2.5545799732208,3,versionB_stim.csv,ReadVersion.csv,Read,Read2,DOCUMENT,PAPER,Study2,F,27,31,Study,User,-,,Study/JOL,"Study Phase",2316,,,-1,-1,,,,1
M20339108_KD,v4ew08fn15,"Mediated JOLs",1,20,2024-11-08T21:13:39+00:00,3.3642539978027,3,versionB_stim.csv,ReadVersion.csv,Read,Read2,MIRROR,CHILDREN,Study2,U,49,18,Study,User,-,,Study/JOL,"Study Phase",3125,,,-1,-1,,,,1
M20339108_KD,v4ew08fn15,"Mediated JOLs",1,21,2024-11-08T21:13:42+00:00,2.8980610370636,3,versionB_stim.csv,ReadVersion.csv,Read,Read2,BLAZE,FIRE,Study2,F,26,41,Study,User,-,,Study/JOL,"Study Phase",2648,,,-1,-1,,,,1
M20339108_KD,v4ew08fn15,"Mediated JOLs",1,22,2024-11-08T21:13:44+00:00,2.4926249980927,3,versionB_stim.csv,ReadVersion.csv,Read,Read2,HORNET,STING,Study2,F,30,42,Study,User,-,,Study/JOL,"Study Phase",2277,,,-1,-1,,,,1
M20339108_KD,v4ew08fn15,"Mediated JOLs",1,23,2024-11-08T21:13:47+00:00,2.5002820491791,3,versionB_stim.csv,ReadVersion.csv,Read,Read2,VALLEY,TOP,Study2,M,18,22,Study,User,-,,Study/JOL,"Study Phase",2278,,,-1,-1,,,,1
M20339108_KD,v4ew08fn15,"Mediated JOLs",1,24,2024-11-08T21:13:49+00:00,2.6672208309174,3,versionB_stim.csv,ReadVersion.csv,Read,Read2,BRIDGE,WATER,Study2,F,35,33,Study,User,-,,Study/JOL,"Study Phase",2422,,,-1,-1,,,,1
M20339108_KD,v4ew08fn15,"Mediated JOLs",1,25,2024-11-08T21:13:52+00:00,3.0394079685211,3,versionB_stim.csv,ReadVersion.csv,Read,Read2,LEAGUE,BASEBALL,Study2,F,29,39,Study,User,-,,Study/JOL,"Study Phase",2777,,,-1,-1,,,,1
M20339108_KD,v4ew08fn15,"Mediated JOLs",1,26,2024-11-08T21:13:55+00:00,3.0687069892883,3,versionB_stim.csv,ReadVersion.csv,Read,Read2,STRONG,ACCIDENT,Study2,U,39,8,Study,User,-,,Study/JOL,"Study Phase",2826,,,-1,-1,,,,1
M20339108_KD,v4ew08fn15,"Mediated JOLs",1,27,2024-11-08T21:13:58+00:00,2.9240181446075,3,versionB_stim.csv,ReadVersion.csv,Read,Read2,WASP,BUG,Study2,F,34,16,Study,User,-,,Study/JOL,"Study Phase",2651,,,-1,-1,,,,1
M20339108_KD,v4ew08fn15,"Mediated JOLs",1,28,2024-11-08T21:14:01+00:00,3.0868830680847,3,versionB_stim.csv,ReadVersion.csv,Read,Read2,CACTUS,PLANT,Study2,F,21,9,Study,User,-,,Study/JOL,"Study Phase",2848,,,-1,-1,,,,1
M20339108_KD,v4ew08fn15,"Mediated JOLs",1,29,2024-11-08T21:14:04+00:00,2.6369349956512,3,versionB_stim.csv,ReadVersion.csv,Read,Read2,RAKE,PLANT,Study2,M,14,45,Study,User,-,,Study/JOL,"Study Phase",2428,,,-1,-1,,,,1
M20339108_KD,v4ew08fn15,"Mediated JOLs",1,30,2024-11-08T21:14:06+00:00,2.0847849845886,3,versionB_stim.csv,ReadVersion.csv,Read,Read2,HEAVY,BIRD,Study2,M,13,11,Study,User,-,,Study/JOL,"Study Phase",1835,,,-1,-1,,,,1
M20339108_KD,v4ew08fn15,"Mediated JOLs",1,31,2024-11-08T21:14:09+00:00,2.8584887981415,3,versionB_stim.csv,ReadVersion.csv,Read,Read2,BOTH,OUNCE,Study2,U,47,23,Study,User,-,,Study/JOL,"Study Phase",2533,,,-1,-1,,,,1
M20339108_KD,v4ew08fn15,"Mediated JOLs",1,32,2024-11-08T21:14:11+00:00,2.3350591659546,3,versionB_stim.csv,ReadVersion.csv,Read,Read2,CHERRY,RED,Study2,F,25,44,Study,User,-,,Study/JOL,"Study Phase",2050,,,-1,-1,,,,1
M20339108_KD,v4ew08fn15,"Mediated JOLs",1,33,2024-11-08T21:14:14+00:00,3.0521459579468,3,versionB_stim.csv,ReadVersion.csv,Read,Read2,PUSH,CLUTTER,Study2,U,41,14,Study,User,-,,Study/JOL,"Study Phase",2801,,,-1,-1,,,,1
M20339108_KD,v4ew08fn15,"Mediated JOLs",1,34,2024-11-08T21:14:18+00:00,3.7494220733643,3,versionB_stim.csv,ReadVersion.csv,Read,Read2,ARTERY,BRONZE,Study2,U,48,13,Study,User,-,,Study/JOL,"Study Phase",3501,,,-1,-1,,,,1
M20339108_KD,v4ew08fn15,"Mediated JOLs",1,35,2024-11-08T21:14:21+00:00,2.5022358894348,3,versionB_stim.csv,ReadVersion.csv,Read,Read2,DEATH,BUSINESS,Study2,U,44,49,Study,User,-,,Study/JOL,"Study Phase",2269,,,-1,-1,,,,1
M20339108_KD,v4ew08fn15,"Mediated JOLs",1,36,2024-11-08T21:14:23+00:00,2.5948860645294,3,versionB_stim.csv,ReadVersion.csv,Read,Read2,NURSE,COURT,Study2,M,11,50,Study,User,-,,Study/JOL,"Study Phase",2300,,,-1,-1,,,,1
M20339108_KD,v4ew08fn15,"Mediated JOLs",1,37,2024-11-08T21:14:26+00:00,3.0174779891968,3,versionB_stim.csv,ReadVersion.csv,Read,Read2,LEASE,TOIL,Study2,U,46,19,Study,User,-,,Study/JOL,"Study Phase",2581,,,-1,-1,,,,1
M20339108_KD,v4ew08fn15,"Mediated JOLs",1,38,2024-11-08T21:14:29+00:00,2.5406720638275,3,versionB_stim.csv,ReadVersion.csv,Read,Read2,KING,VASE,Study2,U,36,26,Study,User,-,,Study/JOL,"Study Phase",2210,,,-1,-1,,,,1
M20339108_KD,v4ew08fn15,"Mediated JOLs",1,39,2024-11-08T21:14:32+00:00,2.8120729923248,3,versionB_stim.csv,ReadVersion.csv,Read,Read2,BENCH,HORN,Study2,U,43,21,Study,User,-,,Study/JOL,"Study Phase",2562,,,-1,-1,,,,1
M20339108_KD,v4ew08fn15,"Mediated JOLs",1,40,2024-11-08T21:14:34+00:00,2.3463168144226,3,versionB_stim.csv,ReadVersion.csv,Read,Read2,SCHOOL,SIGN,Study2,M,7,32,Study,User,-,,Study/JOL,"Study Phase",2092,,,-1,-1,,,,1
M20339108_KD,v4ew08fn15,"Mediated JOLs",1,41,2024-11-08T21:14:38+00:00,4.1592910289764,3,versionB_stim.csv,ReadVersion.csv,Read,Read2,RAZOR,ARM,Study2,M,20,29,Study,User,-,,Study/JOL,"Study Phase",3891,,,-1,-1,,,,1
M20339108_KD,v4ew08fn15,"Mediated JOLs",1,42,2024-11-08T21:14:43+00:00,4.5014021396637,3,versionB_stim.csv,ReadVersion.csv,Read,Read2,SOAP,THIRST,Study2,M,12,24,Study,User,-,,Study/JOL,"Study Phase",4235,,,-1,-1,,,,1
M20339108_KD,v4ew08fn15,"Mediated JOLs",1,43,2024-11-08T21:14:46+00:00,3.4395079612732,3,versionB_stim.csv,ReadVersion.csv,Read,Read2,SICK,HIDE,Study2,U,45,10,Study,User,-,,Study/JOL,"Study Phase",3206,,,-1,-1,,,,1
M20339108_KD,v4ew08fn15,"Mediated JOLs",1,44,2024-11-08T21:14:51+00:00,4.5367259979248,3,versionB_stim.csv,ReadVersion.csv,Read,Read2,CHILL,COLD,Study2,F,32,36,Study,User,-,,Study/JOL,"Study Phase",4273,,,-1,-1,,,,1
M20339108_KD,v4ew08fn15,"Mediated JOLs",1,45,2024-11-08T21:14:54+00:00,3.0485560894012,3,versionB_stim.csv,ReadVersion.csv,Read,Read2,CHISEL,HAMMER,Study2,F,23,12,Study,User,-,,Study/JOL,"Study Phase",2796,,,-1,-1,,,,1
M20339108_KD,v4ew08fn15,"Mediated JOLs",1,46,2024-11-08T21:14:57+00:00,3.5173239707947,3,versionB_stim.csv,ReadVersion.csv,Read,Read2,OVEN,WEAVE,Study2,M,16,37,Study,User,-,,Study/JOL,"Study Phase",3285,,,-1,-1,,,,1
M20339108_KD,v4ew08fn15,"Mediated JOLs",1,47,2024-11-08T21:15:01+00:00,4.2776010036469,3,versionB_stim.csv,ReadVersion.csv,Read,Read2,INCENSE,SMELL,Study2,F,28,48,Study,User,-,,Study/JOL,"Study Phase",4027,,,-1,-1,,,,1
M20339108_KD,v4ew08fn15,"Mediated JOLs",1,48,2024-11-08T21:15:05+00:00,3.4070749282837,3,versionB_stim.csv,ReadVersion.csv,Read,Read2,HERD,COW,Study2,F,33,46,Study,User,-,,Study/JOL,"Study Phase",3172,,,-1,-1,,,,1
M20339108_KD,v4ew08fn15,"Mediated JOLs",1,49,2024-11-08T21:15:08+00:00,2.737163066864,3,versionB_stim.csv,ReadVersion.csv,Read,Read2,ART,WOLF,Study2,U,38,43,Study,User,-,,Study/JOL,"Study Phase",2484,,,-1,-1,,,,1
M20339108_KD,v4ew08fn15,"Mediated JOLs",1,50,2024-11-08T21:15:10+00:00,2.6591060161591,3,versionB_stim.csv,ReadVersion.csv,Read,Read2,ATTIRE,CLOTHES,Study2,F,24,7,Study,User,-,,Study/JOL,"Study Phase",2417,,,-1,-1,,,,1
M20339108_KD,v4ew08fn15,"Mediated JOLs",1,51,2024-11-08T21:15:13+00:00,2.8955688476562,3,versionB_stim.csv,ReadVersion.csv,Read,Read2,DIETARY,SACK,Study2,U,42,20,Study,User,-,,Study/JOL,"Study Phase",2676,,,-1,-1,,,,1
M20339108_KD,v4ew08fn15,"Mediated JOLs",1,52,2024-11-08T21:15:17+00:00,3.5746870040894,3,versionB_stim.csv,ReadVersion.csv,Read,Read2,WINDOW,HANDLE,Study2,M,19,40,Study,User,-,,Study/JOL,"Study Phase",3304,,,-1,-1,,,,1
M20339108_KD,v4ew08fn15,"Mediated JOLs",1,53,2024-11-08T21:15:20+00:00,3.0311601161957,3,versionB_stim.csv,ReadVersion.csv,Read,Read2,CAMP,ADVENTURE,BUFFER4,Buffer,55,55,Study,User,-,,Study/JOL,BUFFER2,2808,,,-1,-1,,,,1
M20339108_KD,v4ew08fn15,"Mediated JOLs",1,54,2024-11-08T21:15:22+00:00,2.3625249862671,3,versionB_stim.csv,ReadVersion.csv,Read,Read2,PITCHER,CATCHER,BUFFER1,Buffer,57,60,Study,User,-,,Study/JOL,BUFFER2,2123,,,-1,-1,,,,1
M20339108_KD,v4ew08fn15,"Mediated JOLs",1,55,2024-11-08T21:15:25+00:00,2.4351780414581,3,versionB_stim.csv,ReadVersion.csv,Read,Read2,GEESE,GOOSE,BUFFER2,Buffer,106,110,Study,User,-,,Study/JOL,BUFFER2,2163,,,-1,-1,,,,1
M20339108_KD,v4ew08fn15,"Mediated JOLs",1,56,2024-11-08T21:15:27+00:00,2.0986189842224,3,versionB_stim.csv,ReadVersion.csv,Read,Read2,THING,STUFF,BUFFER2,Buffer,110,108,Study,User,-,,Study/JOL,BUFFER2,1845,,,-1,-1,,,,1
M20339108_KD,v4ew08fn15,"Mediated JOLs",1,57,2024-11-08T21:15:31+00:00,4.1585788726807,3,versionB_stim.csv,ReadVersion.csv,Read,Read2,SCARE,FRIGHT,BUFFER1,Buffer,59,59,Study,User,-,,Study/JOL,BUFFER2,3933,,,-1,-1,,,,1
M20339108_KD,v4ew08fn15,"Mediated JOLs",1,58,2024-11-08T21:15:33+00:00,2.399866104126,3,versionB_stim.csv,ReadVersion.csv,Read,Read2,,,,,,0,Instruct,User,-,"You have completed this section. Please press Enter.",Filler_Instruction,Instruct2,2151,,,-1,-1,,,,1
M20339108_KD,v4ew08fn15,"Mediated JOLs",1,59,2024-11-08T21:17:34+00:00,120.38259196281,3,versionB_stim.csv,ReadVersion.csv,Read,Read2,,,,,,0,FreeRecall,120,120,"Please list the 50 US states in alphabetical order. The task will automatically advance to the next screen after two minutes.",,Filler1,120003,"Alabama alaska arizona arkansa california colorodo connecticut deleware florida georgia hawii idaho illionos indiana iowa kansa kentucky louisiana maine maryland massuchusets michigan minisota mississ",0,11240,119364,0,0,,1
M20339108_KD,v4ew08fn15,"Mediated JOLs",1,60,2024-11-08T21:17:46+00:00,11.983748912811,3,versionB_stim.csv,ReadVersion.csv,Read,Read2,,,,,,0,Instruct,-,10,"You will now be presented with the first word from each of the previously studied item pairs. Please type the missing word. If you do not know the word, you may guess or press Enter to skip forward to the next pair.",,Instruct3,11451,,,-1,-1,,,,1
M20339108_KD,v4ew08fn15,"Mediated JOLs",1,61,2024-11-08T21:17:55+00:00,9.0422451496124,3,versionB_stim.csv,ReadVersion.csv,Read,Read2,HEAVY,BIRD,Study2,M,13,11,Test,User,-,,Recall,Recall1,8701,weight,20,6125,7602,0,0,,1
M20339108_KD,v4ew08fn15,"Mediated JOLs",1,62,2024-11-08T21:17:58+00:00,3.7442629337311,3,versionB_stim.csv,ReadVersion.csv,Read,Read2,BRIDGE,WATER,Study2,F,35,33,Test,User,-,,Recall,Recall1,3473,water,100,1662,2418,1,1,,1
M20339108_KD,v4ew08fn15,"Mediated JOLs",1,63,2024-11-08T21:18:04+00:00,5.5525279045105,3,versionB_stim.csv,ReadVersion.csv,Read,Read2,SCHOOL,SIGN,Study2,M,7,32,Test,User,-,,Recall,Recall1,5296,bus,28.571428571429,3928,4200,0,0,,1
M20339108_KD,v4ew08fn15,"Mediated JOLs",1,64,2024-11-08T21:18:08+00:00,4.4445440769196,3,versionB_stim.csv,ReadVersion.csv,Read,Read2,ATTIRE,CLOTHES,Study2,F,24,7,Test,User,-,,Recall,Recall1,4169,clothes,100,2391,3313,1,1,,1
M20339108_KD,v4ew08fn15,"Mediated JOLs",1,65,2024-11-08T21:18:14+00:00,6.0993990898132,3,versionB_stim.csv,ReadVersion.csv,Read,Read2,EYES,TASTE,Study2,M,10,17,Test,User,-,,Recall,Recall1,5878,taste,100,1529,4979,1,1,,1
M20339108_KD,v4ew08fn15,"Mediated JOLs",1,66,2024-11-08T21:18:19+00:00,5.0092358589172,3,versionB_stim.csv,ReadVersion.csv,Read,Read2,CASH,LEG,Study2,U,50,47,Test,User,-,,Recall,Recall1,4745,bank,0,3101,3569,0,0,,1
M20339108_KD,v4ew08fn15,"Mediated JOLs",1,67,2024-11-08T21:18:25+00:00,5.6501841545105,3,versionB_stim.csv,ReadVersion.csv,Read,Read2,RAKE,PLANT,Study2,M,14,45,Test,User,-,,Recall,Recall1,5370,plants,90.909090909091,3136,4303,0,1,,1
M20339108_KD,v4ew08fn15,"Mediated JOLs",1,68,2024-11-08T21:18:29+00:00,3.8118658065796,3,versionB_stim.csv,ReadVersion.csv,Read,Read2,DIETARY,SACK,Study2,U,42,20,Test,User,-,,Recall,Recall1,3514,,0,-1,-1,0,0,,1
M20339108_KD,v4ew08fn15,"Mediated JOLs",1,69,2024-11-08T21:18:39+00:00,9.9855120182037,3,versionB_stim.csv,ReadVersion.csv,Read,Read2,VALLEY,TOP,Study2,M,18,22,Test,User,-,,Recall,Recall1,9690,top,100,8171,8457,1,1,,1
M20339108_KD,v4ew08fn15,"Mediated JOLs",1,70,2024-11-08T21:18:46+00:00,6.7573561668396,3,versionB_stim.csv,ReadVersion.csv,Read,Read2,OVEN,WEAVE,Study2,M,16,37,Test,User,-,,Recall,Recall1,6506,bake,44.444444444444,5072,5498,0,0,,1
M20339108_KD,v4ew08fn15,"Mediated JOLs",1,71,2024-11-08T21:18:50+00:00,4.4063727855682,3,versionB_stim.csv,ReadVersion.csv,Read,Read2,TRAP,MAN,Study2,M,15,28,Test,User,-,,Recall,Recall1,4148,man,100,2160,2427,1,1,,1
M20339108_KD,v4ew08fn15,"Mediated JOLs",1,72,2024-11-08T21:19:07+00:00,16.483656167984,3,versionB_stim.csv,ReadVersion.csv,Read,Read2,KING,VASE,Study2,U,36,26,Test,User,-,,Recall,Recall1,16212,,0,-1,-1,0,0,,1
M20339108_KD,v4ew08fn15,"Mediated JOLs",1,73,2024-11-08T21:19:20+00:00,13.855073928833,3,versionB_stim.csv,ReadVersion.csv,Read,Read2,SICK,HIDE,Study2,U,45,10,Test,User,-,,Recall,Recall1,13608,leg,28.571428571429,12098,12416,0,0,,1
M20339108_KD,v4ew08fn15,"Mediated JOLs",1,74,2024-11-08T21:19:25+00:00,4.8532691001892,3,versionB_stim.csv,ReadVersion.csv,Read,Read2,ARTERY,BRONZE,Study2,U,48,13,Test,User,-,,Recall,Recall1,4629,bronze,100,2593,3670,1,1,,1
M20339108_KD,v4ew08fn15,"Mediated JOLs",1,75,2024-11-08T21:19:47+00:00,21.350059986115,3,versionB_stim.csv,ReadVersion.csv,Read,Read2,INCENSE,SMELL,Study2,F,28,48,Test,User,-,,Recall,Recall1,21133,,0,-1,-1,0,0,,1
M20339108_KD,v4ew08fn15,"Mediated JOLs",1,76,2024-11-08T21:19:55+00:00,8.040629863739,3,versionB_stim.csv,ReadVersion.csv,Read,Read2,ART,WOLF,Study2,U,38,43,Test,User,-,,Recall,Recall1,7731,leg,28.571428571429,6241,6679,0,0,,1
M20339108_KD,v4ew08fn15,"Mediated JOLs",1,77,2024-11-08T21:20:03+00:00,8.2922561168671,3,versionB_stim.csv,ReadVersion.csv,Read,Read2,NURSE,COURT,Study2,M,11,50,Test,User,-,,Recall,Recall1,8038,care,44.444444444444,6597,7141,0,0,,1
M20339108_KD,v4ew08fn15,"Mediated JOLs",1,78,2024-11-08T21:20:06+00:00,3.2557640075684,3,versionB_stim.csv,ReadVersion.csv,Read,Read2,HERD,COW,Study2,F,33,46,Test,User,-,,Recall,Recall1,3027,cow,100,1716,2009,1,1,,1
M20339108_KD,v4ew08fn15,"Mediated JOLs",1,79,2024-11-08T21:20:11+00:00,4.6406559944153,3,versionB_stim.csv,ReadVersion.csv,Read,Read2,LEASE,TOIL,Study2,U,46,19,Test,User,-,,Recall,Recall1,4449,rent,25,2791,3397,0,0,,1
M20339108_KD,v4ew08fn15,"Mediated JOLs",1,80,2024-11-08T21:20:19+00:00,7.9509899616241,3,versionB_stim.csv,ReadVersion.csv,Read,Read2,CACTUS,PLANT,Study2,F,21,9,Test,User,-,,Recall,Recall1,7738,,0,-1,-1,0,0,,1
M20339108_KD,v4ew08fn15,"Mediated JOLs",1,81,2024-11-08T21:20:24+00:00,5.5592260360718,3,versionB_stim.csv,ReadVersion.csv,Read,Read2,WASP,BUG,Study2,F,34,16,Test,User,-,,Recall,Recall1,5338,bug,100,3459,4387,1,1,,1
M20339108_KD,v4ew08fn15,"Mediated JOLs",1,82,2024-11-08T21:20:29+00:00,4.6049120426178,3,versionB_stim.csv,ReadVersion.csv,Read,Read2,RAZOR,ARM,Study2,M,20,29,Test,User,-,,Recall,Recall1,4357,sharp,50,2622,3168,0,0,,1
M20339108_KD,v4ew08fn15,"Mediated JOLs",1,83,2024-11-08T21:20:32+00:00,3.4711120128632,3,versionB_stim.csv,ReadVersion.csv,Read,Read2,CHILL,COLD,Study2,F,32,36,Test,User,-,,Recall,Recall1,3244,cold,100,1801,2297,1,1,,1
M20339108_KD,v4ew08fn15,"Mediated JOLs",1,84,2024-11-08T21:20:37+00:00,4.9821228981018,3,versionB_stim.csv,ReadVersion.csv,Read,Read2,SUMMER,WHITE,Study2,M,6,51,Test,User,-,,Recall,Recall1,4732,white,100,2731,3862,1,1,,1
M20339108_KD,v4ew08fn15,"Mediated JOLs",1,85,2024-11-08T21:20:44+00:00,6.5201399326324,3,versionB_stim.csv,ReadVersion.csv,Read,Read2,PANTS,DOG,Study2,M,8,25,Test,User,-,,Recall,Recall1,6277,cash,0,3700,5180,0,0,,1
M20339108_KD,v4ew08fn15,"Mediated JOLs",1,86,2024-11-08T21:20:52+00:00,8.0374550819397,3,versionB_stim.csv,ReadVersion.csv,Read,Read2,DEATH,BUSINESS,Study2,U,44,49,Test,User,-,,Recall,Recall1,7739,body,16.666666666667,5608,6564,0,0,,1
M20339108_KD,v4ew08fn15,"Mediated JOLs",1,87,2024-11-08T21:20:56+00:00,4.0402669906616,3,versionB_stim.csv,ReadVersion.csv,Read,Read2,MIRROR,CHILDREN,Study2,U,49,18,Test,User,-,,Recall,Recall1,3756,child,76.923076923077,1903,2706,0,1,,1
M20339108_KD,v4ew08fn15,"Mediated JOLs",1,88,2024-11-08T21:21:00+00:00,4.3418889045715,3,versionB_stim.csv,ReadVersion.csv,Read,Read2,STRONG,ACCIDENT,Study2,U,39,8,Test,User,-,,Recall,Recall1,4141,weak,16.666666666667,2562,3169,0,0,,1
M20339108_KD,v4ew08fn15,"Mediated JOLs",1,89,2024-11-08T21:21:08+00:00,7.8025321960449,3,versionB_stim.csv,ReadVersion.csv,Read,Read2,REALITY,WATER,Study2,M,9,34,Test,User,-,,Recall,Recall1,7571,water,100,2301,6775,1,1,,1
M20339108_KD,v4ew08fn15,"Mediated JOLs",1,90,2024-11-08T21:21:13+00:00,4.5125699043274,3,versionB_stim.csv,ReadVersion.csv,Read,Read2,BLAZE,FIRE,Study2,F,26,41,Test,User,-,,Recall,Recall1,4232,fire,100,2868,3330,1,1,,1
M20339108_KD,v4ew08fn15,"Mediated JOLs",1,91,2024-11-08T21:21:21+00:00,8.2098650932312,3,versionB_stim.csv,ReadVersion.csv,Read,Read2,PUSH,CLUTTER,Study2,U,41,14,Test,User,-,,Recall,Recall1,7971,,0,-1,-1,0,0,,1
M20339108_KD,v4ew08fn15,"Mediated JOLs",1,92,2024-11-08T21:21:26+00:00,5.2528228759766,3,versionB_stim.csv,ReadVersion.csv,Read,Read2,SUGAR,RIDDLE,Study2,U,40,35,Test,User,-,,Recall,Recall1,5056,sweet,18.181818181818,2355,3408,0,0,,1
M20339108_KD,v4ew08fn15,"Mediated JOLs",1,93,2024-11-08T21:21:33+00:00,6.9648721218109,3,versionB_stim.csv,ReadVersion.csv,Read,Read2,BOTH,OUNCE,Study2,U,47,23,Test,User,-,,Recall,Recall1,6712,,0,4567,4567,0,0,,1
M20339108_KD,v4ew08fn15,"Mediated JOLs",1,94,2024-11-08T21:21:38+00:00,5.4113988876343,3,versionB_stim.csv,ReadVersion.csv,Read,Read2,HAPPY,CAR,Study2,U,37,30,Test,User,-,,Recall,Recall1,5181,face,28.571428571429,3593,4173,0,0,,1
M20339108_KD,v4ew08fn15,"Mediated JOLs",1,95,2024-11-08T21:21:50+00:00,11.25278711319,3,versionB_stim.csv,ReadVersion.csv,Read,Read2,HORNET,STING,Study2,F,30,42,Test,User,-,,Recall,Recall1,10970,frog,22.222222222222,9377,10063,0,0,,1
M20339108_KD,v4ew08fn15,"Mediated JOLs",1,96,2024-11-08T21:21:55+00:00,5.3709349632263,3,versionB_stim.csv,ReadVersion.csv,Read,Read2,CHOP,CUT,Study2,F,22,38,Test,User,-,,Recall,Recall1,5157,cut,100,3918,4295,1,1,,1
M20339108_KD,v4ew08fn15,"Mediated JOLs",1,97,2024-11-08T21:21:59+00:00,4.0781049728394,3,versionB_stim.csv,ReadVersion.csv,Read,Read2,CHISEL,HAMMER,Study2,F,23,12,Test,User,-,,Recall,Recall1,3815,,0,-1,-1,0,0,,1
M20339108_KD,v4ew08fn15,"Mediated JOLs",1,98,2024-11-08T21:22:03+00:00,4.2895400524139,3,versionB_stim.csv,ReadVersion.csv,Read,Read2,LEAGUE,BASEBALL,Study2,F,29,39,Test,User,-,,Recall,Recall1,4045,baseball,100,1875,3131,1,1,,1
M20339108_KD,v4ew08fn15,"Mediated JOLs",1,99,2024-11-08T21:22:06+00:00,2.9213228225708,3,versionB_stim.csv,ReadVersion.csv,Read,Read2,CHERRY,RED,Study2,F,25,44,Test,User,-,,Recall,Recall1,2688,red,100,1406,1807,1,1,,1
M20339108_KD,v4ew08fn15,"Mediated JOLs",1,100,2024-11-08T21:22:15+00:00,8.1919660568237,3,versionB_stim.csv,ReadVersion.csv,Read,Read2,GRILL,LEG,Study2,M,17,15,Test,User,-,,Recall,Recall1,7940,cook,0,6164,6780,0,0,,1
M20339108_KD,v4ew08fn15,"Mediated JOLs",1,101,2024-11-08T21:22:18+00:00,3.8454411029816,3,versionB_stim.csv,ReadVersion.csv,Read,Read2,DOCUMENT,PAPER,Study2,F,27,31,Test,User,-,,Recall,Recall1,3640,papers,90.909090909091,1846,2774,0,1,,1
M20339108_KD,v4ew08fn15,"Mediated JOLs",1,102,2024-11-08T21:22:26+00:00,7.3450629711151,3,versionB_stim.csv,ReadVersion.csv,Read,Read2,SOAP,THIRST,Study2,M,12,24,Test,User,-,,Recall,Recall1,7113,wash,20,5171,6074,0,0,,1
M20339108_KD,v4ew08fn15,"Mediated JOLs",1,103,2024-11-08T21:22:30+00:00,4.4486908912659,3,versionB_stim.csv,ReadVersion.csv,Read,Read2,WINDOW,HANDLE,Study2,M,19,40,Test,User,-,,Recall,Recall1,4212,handle,100,2175,3339,1,1,,1
M20339108_KD,v4ew08fn15,"Mediated JOLs",1,104,2024-11-08T21:22:37+00:00,6.3544809818268,3,versionB_stim.csv,ReadVersion.csv,Read,Read2,FEUD,FIGHT,Study2,F,31,27,Test,User,-,,Recall,Recall1,6088,fright,90.909090909091,3155,4110,0,1,,1
M20339108_KD,v4ew08fn15,"Mediated JOLs",1,105,2024-11-08T21:22:46+00:00,9.5765571594238,3,versionB_stim.csv,ReadVersion.csv,Read,Read2,BENCH,HORN,Study2,U,43,21,Test,User,-,,Recall,Recall1,9311,,0,-1,-1,0,0,,1
M20339108_KD,v4ew08fn15,"Mediated JOLs",1,106,2024-11-08T21:23:00+00:00,13.689363956451,3,versionB_stim.csv,ReadVersion.csv,Read,Read2,,,,,,0,Instruct,-,10,"You will now be presented with a new set of word pairs. Please study each pair. Remember that your memory will be tested! When finished, press Enter to move to the next pair.",Initial_Instruct,Instruct4,13452,,,-1,-1,,,,1
M20339108_KD,v4ew08fn15,"Mediated JOLs",1,107,2024-11-08T21:23:02+00:00,2.6368019580841,3,versionB_stim.csv,ReadVersion.csv,Read,Read2,,,,,,0,Instruct,User,-,"Press Enter when you are readty to begin",,Instruct11,2397,,,-1,-1,,,,1
M20339108_KD,v4ew08fn15,"Mediated JOLs",1,108,2024-11-08T21:23:13+00:00,10.925379037857,3,versionB_stim.csv,ReadVersion.csv,Read,Read2,ICE,FROZEN,BUFFER4,Buffer,54,52,Study,User,-,,Study/JOL,BUFFER2,10377,,,-1,-1,,,,1
M20339108_KD,v4ew08fn15,"Mediated JOLs",1,109,2024-11-08T21:23:20+00:00,6.7443020343781,3,versionB_stim.csv,ReadVersion.csv,Read,Read2,NOODLE,STRING,BUFFER4,Buffer,52,56,Study,User,-,,Study/JOL,BUFFER2,6501,,,-1,-1,,,,1
M20339108_KD,v4ew08fn15,"Mediated JOLs",1,110,2024-11-08T21:23:26+00:00,5.3808870315552,3,versionB_stim.csv,ReadVersion.csv,Read,Read2,SHRIMP,FISH,BUFFER4,Buffer,53,54,Study,User,-,,Study/JOL,BUFFER2,5074,,,-1,-1,,,,1
M20339108_KD,v4ew08fn15,"Mediated JOLs",1,111,2024-11-08T21:23:29+00:00,3.946329832077,3,versionB_stim.csv,ReadVersion.csv,Read,Read2,PEANUT,BUTTER,BUFFER1,Buffer,58,57,Study,User,-,,Study/JOL,BUFFER2,3716,,,-1,-1,,,,1
M20339108_KD,v4ew08fn15,"Mediated JOLs",1,112,2024-11-08T21:23:34+00:00,4.4481899738312,3,versionB_stim.csv,ReadVersion.csv,Read,Read2,SPACE,JAM,BUFFER1,Buffer,60,58,Study,User,-,,Study/JOL,BUFFER2,4193,,,-1,-1,,,,1
M20339108_KD,v4ew08fn15,"Mediated JOLs",1,113,2024-11-08T21:23:39+00:00,4.8950300216675,3,versionB_stim.csv,ReadVersion.csv,Read,Read2,LION,FLAG,Study1,M,61,69,Study,User,-,,Study/JOL,"Study Phase2",4621,,,-1,-1,,,,1
M20339108_KD,v4ew08fn15,"Mediated JOLs",1,114,2024-11-08T21:23:44+00:00,5.1265871524811,3,versionB_stim.csv,ReadVersion.csv,Read,Read2,HYGIENE,CLEAN,Study1,F,83,96,Study,User,-,,Study/JOL,"Study Phase2",4866,,,-1,-1,,,,1
M20339108_KD,v4ew08fn15,"Mediated JOLs",1,115,2024-11-08T21:23:49+00:00,4.6423208713531,3,versionB_stim.csv,ReadVersion.csv,Read,Read2,SWAN,BIRD,Study1,F,81,80,Study,User,-,,Study/JOL,"Study Phase2",4329,,,-1,-1,,,,1
M20339108_KD,v4ew08fn15,"Mediated JOLs",1,116,2024-11-08T21:23:54+00:00,5.0395841598511,3,versionB_stim.csv,ReadVersion.csv,Read,Read2,TREE,PANCAKES,Study1,M,66,87,Study,User,-,,Study/JOL,"Study Phase2",4777,,,-1,-1,,,,1
M20339108_KD,v4ew08fn15,"Mediated JOLs",1,117,2024-11-08T21:24:02+00:00,8.0509178638458,3,versionB_stim.csv,ReadVersion.csv,Read,Read2,TUNA,FISH,Study1,F,90,66,Study,User,-,,Study/JOL,"Study Phase2",7773,,,-1,-1,,,,1
M20339108_KD,v4ew08fn15,"Mediated JOLs",1,118,2024-11-08T21:24:06+00:00,4.4065260887146,3,versionB_stim.csv,ReadVersion.csv,Read,Read2,WORD,SENTENCE,Study1,F,82,90,Study,User,-,,Study/JOL,"Study Phase2",4152,,,-1,-1,,,,1
M20339108_KD,v4ew08fn15,"Mediated JOLs",1,119,2024-11-08T21:24:09+00:00,2.9559030532837,3,versionB_stim.csv,ReadVersion.csv,Read,Read2,CREDIT,CARD,Study1,F,88,99,Study,User,-,,Study/JOL,"Study Phase2",2676,,,-1,-1,,,,1
M20339108_KD,v4ew08fn15,"Mediated JOLs",1,120,2024-11-08T21:24:13+00:00,4.3079469203949,3,versionB_stim.csv,ReadVersion.csv,Read,Read2,MULE,DONKEY,Study1,F,85,79,Study,User,-,,Study/JOL,"Study Phase2",4080,,,-1,-1,,,,1
M20339108_KD,v4ew08fn15,"Mediated JOLs",1,121,2024-11-08T21:24:21+00:00,7.7317349910736,3,versionB_stim.csv,ReadVersion.csv,Read,Read2,HORSE,TIRE,Study1,M,69,64,Study,User,-,,Study/JOL,"Study Phase2",7530,,,-1,-1,,,,1
M20339108_KD,v4ew08fn15,"Mediated JOLs",1,122,2024-11-08T21:24:24+00:00,3.2543640136719,3,versionB_stim.csv,ReadVersion.csv,Read,Read2,ROOT,PLANT,Study1,F,80,71,Study,User,-,,Study/JOL,"Study Phase2",3010,,,-1,-1,,,,1
M20339108_KD,v4ew08fn15,"Mediated JOLs",1,123,2024-11-08T21:24:28+00:00,3.8136749267578,3,versionB_stim.csv,ReadVersion.csv,Read,Read2,CIRCLE,FUN,Study1,M,68,76,Study,User,-,,Study/JOL,"Study Phase2",3566,,,-1,-1,,,,1
M20339108_KD,v4ew08fn15,"Mediated JOLs",1,124,2024-11-08T21:24:33+00:00,4.685760974884,3,versionB_stim.csv,ReadVersion.csv,Read,Read2,KEYS,ROD,Study1,U,100,98,Study,User,-,,Study/JOL,"Study Phase2",4172,,,-1,-1,,,,1
M20339108_KD,v4ew08fn15,"Mediated JOLs",1,125,2024-11-08T21:24:38+00:00,5.2433471679688,3,versionB_stim.csv,ReadVersion.csv,Read,Read2,WAR,LOUD,Study1,M,63,65,Study,User,-,,Study/JOL,"Study Phase2",5026,,,-1,-1,,,,1
M20339108_KD,v4ew08fn15,"Mediated JOLs",1,126,2024-11-08T21:24:43+00:00,4.8135328292847,3,versionB_stim.csv,ReadVersion.csv,Read,Read2,CAKE,HAND,Study1,U,104,106,Study,User,-,,Study/JOL,"Study Phase2",4552,,,-1,-1,,,,1
M20339108_KD,v4ew08fn15,"Mediated JOLs",1,127,2024-11-08T21:24:48+00:00,5.0428550243378,3,versionB_stim.csv,ReadVersion.csv,Read,Read2,STRETCH,CLOTH,Study1,U,92,100,Study,User,-,,Study/JOL,"Study Phase2",4806,,,-1,-1,,,,1
M20339108_KD,v4ew08fn15,"Mediated JOLs",1,128,2024-11-08T21:24:53+00:00,4.9965550899506,3,versionB_stim.csv,ReadVersion.csv,Read,Read2,TEMPERATURE,MORNING,Study1,U,103,74,Study,User,-,,Study/JOL,"Study Phase2",4733,,,-1,-1,,,,1
M20339108_KD,v4ew08fn15,"Mediated JOLs",1,129,2024-11-08T21:24:57+00:00,3.9563620090485,3,versionB_stim.csv,ReadVersion.csv,Read,Read2,ORCHID,FLOWER,Study1,F,89,84,Study,User,-,,Study/JOL,"Study Phase2",3718,,,-1,-1,,,,1
M20339108_KD,v4ew08fn15,"Mediated JOLs",1,130,2024-11-08T21:25:01+00:00,4.3162438869476,3,versionB_stim.csv,ReadVersion.csv,Read,Read2,BAT,JUMP,Study1,M,67,72,Study,User,-,,Study/JOL,"Study Phase2",4073,,,-1,-1,,,,1
M20339108_KD,v4ew08fn15,"Mediated JOLs",1,131,2024-11-08T21:25:08+00:00,6.7753310203552,3,versionB_stim.csv,ReadVersion.csv,Read,Read2,CEILING,RUG,Study1,M,70,82,Study,User,-,,Study/JOL,"Study Phase2",6516,,,-1,-1,,,,1
M20339108_KD,v4ew08fn15,"Mediated JOLs",1,132,2024-11-08T21:25:14+00:00,6.3029661178589,3,versionB_stim.csv,ReadVersion.csv,Read,Read2,DAY,BLACK,Study1,M,73,81,Study,User,-,,Study/JOL,"Study Phase2",6009,,,-1,-1,,,,1
M20339108_KD,v4ew08fn15,"Mediated JOLs",1,133,2024-11-08T21:25:19+00:00,4.3005259037018,3,versionB_stim.csv,ReadVersion.csv,Read,Read2,MULE,DONKEY,Study1,F,79,62,Study,User,-,,Study/JOL,"Study Phase2",4050,,,-1,-1,,,,1
M20339108_KD,v4ew08fn15,"Mediated JOLs",1,134,2024-11-08T21:25:24+00:00,5.194855928421,3,versionB_stim.csv,ReadVersion.csv,Read,Read2,MAZE,PHONE,Study1,U,97,94,Study,User,-,,Study/JOL,"Study Phase2",4948,,,-1,-1,,,,1
M20339108_KD,v4ew08fn15,"Mediated JOLs",1,135,2024-11-08T21:25:27+00:00,3.5044929981232,3,versionB_stim.csv,ReadVersion.csv,Read,Read2,CRY,BEER,Study1,M,71,70,Study,User,-,,Study/JOL,"Study Phase2",3243,,,-1,-1,,,,1
M20339108_KD,v4ew08fn15,"Mediated JOLs",1,136,2024-11-08T21:25:32+00:00,4.4174971580505,3,versionB_stim.csv,ReadVersion.csv,Read,Read2,ROUGH,WORM,Study1,M,65,95,Study,User,-,,Study/JOL,"Study Phase2",4147,,,-1,-1,,,,1
M20339108_KD,v4ew08fn15,"Mediated JOLs",1,137,2024-11-08T21:25:36+00:00,4.3872358798981,3,versionB_stim.csv,ReadVersion.csv,Read,Read2,FUZZY,BANG,Study1,U,105,104,Study,User,-,,Study/JOL,"Study Phase2",4085,,,-1,-1,,,,1
M20339108_KD,v4ew08fn15,"Mediated JOLs",1,138,2024-11-08T21:25:41+00:00,4.8592929840088,3,versionB_stim.csv,ReadVersion.csv,Read,Read2,LITTER,TRASH,Study1,F,76,93,Study,User,-,,Study/JOL,"Study Phase2",4594,,,-1,-1,,,,1
M20339108_KD,v4ew08fn15,"Mediated JOLs",1,139,2024-11-08T21:25:45+00:00,3.8868820667267,3,versionB_stim.csv,ReadVersion.csv,Read,Read2,SHELL,SHAKE,Study1,U,98,101,Study,User,-,,Study/JOL,"Study Phase2",3600,,,-1,-1,,,,1
M20339108_KD,v4ew08fn15,"Mediated JOLs",1,140,2024-11-08T21:25:49+00:00,3.8721640110016,3,versionB_stim.csv,ReadVersion.csv,Read,Read2,SIP,DRINK,Study1,F,87,97,Study,User,-,,Study/JOL,"Study Phase2",3631,,,-1,-1,,,,1
M20339108_KD,v4ew08fn15,"Mediated JOLs",1,141,2024-11-08T21:25:53+00:00,4.3801710605621,3,versionB_stim.csv,ReadVersion.csv,Read,Read2,WAGE,MONEY,Study1,F,77,83,Study,User,-,,Study/JOL,"Study Phase2",4151,,,-1,-1,,,,1
M20339108_KD,v4ew08fn15,"Mediated JOLs",1,142,2024-11-08T21:25:57+00:00,4.3087439537048,3,versionB_stim.csv,ReadVersion.csv,Read,Read2,MEAT,KEYS,Study1,U,96,103,Study,User,-,,Study/JOL,"Study Phase2",4078,,,-1,-1,,,,1
M20339108_KD,v4ew08fn15,"Mediated JOLs",1,143,2024-11-08T21:26:02+00:00,4.8466429710388,3,versionB_stim.csv,ReadVersion.csv,Read,Read2,GIVE,STEAK,Study1,U,93,88,Study,User,-,,Study/JOL,"Study Phase2",4577,,,-1,-1,,,,1
M20339108_KD,v4ew08fn15,"Mediated JOLs",1,144,2024-11-08T21:26:06+00:00,4.0058510303497,3,versionB_stim.csv,ReadVersion.csv,Read,Read2,SOON,BELT,Study1,U,101,91,Study,User,-,,Study/JOL,"Study Phase2",3768,,,-1,-1,,,,1
M20339108_KD,v4ew08fn15,"Mediated JOLs",1,145,2024-11-08T21:26:11+00:00,4.4875590801239,3,versionB_stim.csv,ReadVersion.csv,Read,Read2,CRACKLE,ELECTION,Study1,U,94,67,Study,User,-,,Study/JOL,"Study Phase2",4241,,,-1,-1,,,,1
M20339108_KD,v4ew08fn15,"Mediated JOLs",1,146,2024-11-08T21:26:15+00:00,4.4437549114227,3,versionB_stim.csv,ReadVersion.csv,Read,Read2,TOOTH,COMB,Study1,M,74,78,Study,User,-,,Study/JOL,"Study Phase2",4217,,,-1,-1,,,,1
M20339108_KD,v4ew08fn15,"Mediated JOLs",1,147,2024-11-08T21:26:19+00:00,4.2091789245605,3,versionB_stim.csv,ReadVersion.csv,Read,Read2,LISTEN,FICTION,Study1,U,99,86,Study,User,-,,Study/JOL,"Study Phase2",3942,,,-1,-1,,,,1
M20339108_KD,v4ew08fn15,"Mediated JOLs",1,148,2024-11-08T21:26:24+00:00,4.3599581718445,3,versionB_stim.csv,ReadVersion.csv,Read,Read2,SIGN,TICK,Study1,U,102,92,Study,User,-,,Study/JOL,"Study Phase2",4127,,,-1,-1,,,,1
M20339108_KD,v4ew08fn15,"Mediated JOLs",1,149,2024-11-08T21:26:27+00:00,3.3415539264679,3,versionB_stim.csv,ReadVersion.csv,Read,Read2,BEACH,SQUARE,Study1,M,62,75,Study,User,-,,Study/JOL,"Study Phase2",3080,,,-1,-1,,,,1
M20339108_KD,v4ew08fn15,"Mediated JOLs",1,150,2024-11-08T21:26:30+00:00,2.9508888721466,3,versionB_stim.csv,ReadVersion.csv,Read,Read2,HARD,BALL,Study1,M,75,77,Study,User,-,,Study/JOL,"Study Phase2",2688,,,-1,-1,,,,1
M20339108_KD,v4ew08fn15,"Mediated JOLs",1,151,2024-11-08T21:26:33+00:00,3.1555991172791,3,versionB_stim.csv,ReadVersion.csv,Read,Read2,SCALP,HEAD,Study1,F,78,85,Study,User,-,,Study/JOL,"Study Phase2",2910,,,-1,-1,,,,1
M20339108_KD,v4ew08fn15,"Mediated JOLs",1,152,2024-11-08T21:26:37+00:00,4.0388989448547,3,versionB_stim.csv,ReadVersion.csv,Read,Read2,VEHICLE,CHARM,Study1,U,95,105,Study,User,-,,Study/JOL,"Study Phase2",3781,,,-1,-1,,,,1
M20339108_KD,v4ew08fn15,"Mediated JOLs",1,153,2024-11-08T21:26:39+00:00,2.201630115509,3,versionB_stim.csv,ReadVersion.csv,Read,Read2,NAP,SLEEP,Study1,F,84,102,Study,User,-,,Study/JOL,"Study Phase2",1953,,,-1,-1,,,,1
M20339108_KD,v4ew08fn15,"Mediated JOLs",1,154,2024-11-08T21:26:47+00:00,7.3701539039612,3,versionB_stim.csv,ReadVersion.csv,Read,Read2,MIRROR,MAROON,Study1,U,91,68,Study,User,-,,Study/JOL,"Study Phase2",4402,,,-1,-1,,,,1
M20339108_KD,v4ew08fn15,"Mediated JOLs",1,155,2024-11-08T21:26:51+00:00,3.8892879486084,3,versionB_stim.csv,ReadVersion.csv,Read,Read2,BIRTHDAY,APPLE,Study1,M,64,73,Study,User,-,,Study/JOL,"Study Phase2",3534,,,-1,-1,,,,1
M20339108_KD,v4ew08fn15,"Mediated JOLs",1,156,2024-11-08T21:26:55+00:00,3.9507601261139,3,versionB_stim.csv,ReadVersion.csv,Read,Read2,AFFECTION,LOVE,Study1,F,86,89,Study,User,-,,Study/JOL,"Study Phase2",3684,,,-1,-1,,,,1
M20339108_KD,v4ew08fn15,"Mediated JOLs",1,157,2024-11-08T21:26:58+00:00,3.4845600128174,3,versionB_stim.csv,ReadVersion.csv,Read,Read2,WEDDING,HAND,Study1,M,72,63,Study,User,-,,Study/JOL,"Study Phase2",3266,,,-1,-1,,,,1
M20339108_KD,v4ew08fn15,"Mediated JOLs",1,158,2024-11-08T21:27:01+00:00,2.7581169605255,3,versionB_stim.csv,ReadVersion.csv,Read,Read2,MALT,CHOCOLATE,BUFFER2,Buffer,108,111,Study,User,-,,Study/JOL,BUFFER2,2475,,,-1,-1,,,,1
M20339108_KD,v4ew08fn15,"Mediated JOLs",1,159,2024-11-08T21:27:05+00:00,3.6542310714722,3,versionB_stim.csv,ReadVersion.csv,Read,Read2,SHERRIF,POLICE,BUFFER2,Buffer,107,107,Study,User,-,,Study/JOL,BUFFER2,3373,,,-1,-1,,,,1
M20339108_KD,v4ew08fn15,"Mediated JOLs",1,160,2024-11-08T21:27:07+00:00,2.7501299381256,3,versionB_stim.csv,ReadVersion.csv,Read,Read2,MOON,SPACE,BUFFER2,Buffer,109,109,Study,User,-,,Study/JOL,BUFFER2,2443,,,-1,-1,,,,1
M20339108_KD,v4ew08fn15,"Mediated JOLs",1,161,2024-11-08T21:27:11+00:00,3.4976139068604,3,versionB_stim.csv,ReadVersion.csv,Read,Read2,CARROT,POTATO,BUFFER4,Buffer,51,53,Study,User,-,,Study/JOL,BUFFER2,3227,,,-1,-1,,,,1
M20339108_KD,v4ew08fn15,"Mediated JOLs",1,162,2024-11-08T21:27:15+00:00,4.2022960186005,3,versionB_stim.csv,ReadVersion.csv,Read,Read2,TREES,GREEN,BUFFER1,Buffer,56,61,Study,User,-,,Study/JOL,BUFFER2,3933,,,-1,-1,,,,1
M20339108_KD,v4ew08fn15,"Mediated JOLs",1,163,2024-11-08T21:27:20+00:00,4.8200030326843,3,versionB_stim.csv,ReadVersion.csv,Read,Read2,,,,,,0,Instruct,User,-,"You have completed this section. Please press Enter.",Filler_Instruction,Instruct2,4566,,,-1,-1,,,,1
M20339108_KD,v4ew08fn15,"Mediated JOLs",1,164,2024-11-08T21:29:20+00:00,120.45387291908,3,versionB_stim.csv,ReadVersion.csv,Read,Read2,,,,,,0,FreeRecall,120,120,"Please list the 50 US states in alphabetical order. The task will automatically advance to the next screen after two minutes.",,Filler1,120002,"alabama alaska arizona arkansa califonia colorado connecticut delware florida georgia hawii idaho illionos inidana iowa kansa kentucky louisiana maine maryland massacussets michigan minnesota mississippi misouri montana nebraska neveada new ",0,3136,114608,0,0,,1
M20339108_KD,v4ew08fn15,"Mediated JOLs",1,165,2024-11-08T21:29:36+00:00,15.436318159103,3,versionB_stim.csv,ReadVersion.csv,Read,Read2,,,,,,0,Instruct,-,10,"You will now be presented with the first word from each of the previously studied item pairs. Please type the missing word. If you do not know the word, you may guess or press Enter to skip forward to the next pair.",,Instruct3,15106,,,-1,-1,,,,1
M20339108_KD,v4ew08fn15,"Mediated JOLs",1,166,2024-11-08T21:29:47+00:00,11.466913938522,3,versionB_stim.csv,ReadVersion.csv,Read,Read2,SHELL,SHAKE,Study1,U,98,101,Test,User,-,,Recall,Recall2,11228,shrimp,36.363636363636,9228,10292,0,0,,1
M20339108_KD,v4ew08fn15,"Mediated JOLs",1,167,2024-11-08T21:29:54+00:00,6.7789599895477,3,versionB_stim.csv,ReadVersion.csv,Read,Read2,WAGE,MONEY,Study1,F,77,83,Test,User,-,,Recall,Recall2,6529,pay,25,4862,5686,0,0,,1
M20339108_KD,v4ew08fn15,"Mediated JOLs",1,168,2024-11-08T21:30:02+00:00,8.2386009693146,3,versionB_stim.csv,ReadVersion.csv,Read,Read2,STRETCH,CLOTH,Study1,U,92,100,Test,User,-,,Recall,Recall2,7945,arm,0,5952,7018,0,0,,1
M20339108_KD,v4ew08fn15,"Mediated JOLs",1,169,2024-11-08T21:30:06+00:00,4.0519700050354,3,versionB_stim.csv,ReadVersion.csv,Read,Read2,MULE,DONKEY,Study1,F,85,79,Test,User,-,,Recall,Recall2,3690,donkey,100,1478,2854,1,1,,1
M20339108_KD,v4ew08fn15,"Mediated JOLs",1,170,2024-11-08T21:30:10+00:00,4.1048018932343,3,versionB_stim.csv,ReadVersion.csv,Read,Read2,ORCHID,FLOWER,Study1,F,89,84,Test,User,-,,Recall,Recall2,3884,bird,20,2514,3059,0,0,,1
M20339108_KD,v4ew08fn15,"Mediated JOLs",1,171,2024-11-08T21:30:15+00:00,4.3012490272522,3,versionB_stim.csv,ReadVersion.csv,Read,Read2,FUZZY,BANG,Study1,U,105,104,Test,User,-,,Recall,Recall2,4051,ball,50,2316,3170,0,0,,1
M20339108_KD,v4ew08fn15,"Mediated JOLs",1,172,2024-11-08T21:30:24+00:00,9.6032130718231,3,versionB_stim.csv,ReadVersion.csv,Read,Read2,GIVE,STEAK,Study1,U,93,88,Test,User,-,,Recall,Recall2,9335,thanks,54.545454545455,6290,8426,0,0,,1
M20339108_KD,v4ew08fn15,"Mediated JOLs",1,173,2024-11-08T21:30:31+00:00,6.5960299968719,3,versionB_stim.csv,ReadVersion.csv,Read,Read2,MIRROR,MAROON,Study1,U,91,68,Test,User,-,,Recall,Recall2,6210,maroon,100,1692,5113,1,1,,1
M20339108_KD,v4ew08fn15,"Mediated JOLs",1,174,2024-11-08T21:30:34+00:00,3.0987300872803,3,versionB_stim.csv,ReadVersion.csv,Read,Read2,CREDIT,CARD,Study1,F,88,99,Test,User,-,,Recall,Recall2,2701,card,100,1328,1906,1,1,,1
M20339108_KD,v4ew08fn15,"Mediated JOLs",1,175,2024-11-08T21:30:38+00:00,3.7008738517761,3,versionB_stim.csv,ReadVersion.csv,Read,Read2,ROOT,PLANT,Study1,F,80,71,Test,User,-,,Recall,Recall2,3435,plant,100,1553,2691,1,1,,1
M20339108_KD,v4ew08fn15,"Mediated JOLs",1,176,2024-11-08T21:30:41+00:00,3.75630402565,3,versionB_stim.csv,ReadVersion.csv,Read,Read2,CEILING,RUG,Study1,M,70,82,Test,User,-,,Recall,Recall2,3438,rug,100,1817,2541,1,1,,1
M20339108_KD,v4ew08fn15,"Mediated JOLs",1,177,2024-11-08T21:30:47+00:00,5.4460949897766,3,versionB_stim.csv,ReadVersion.csv,Read,Read2,BIRTHDAY,APPLE,Study1,M,64,73,Test,User,-,,Recall,Recall2,5185,hand,22.222222222222,1874,2283,0,0,,1
M20339108_KD,v4ew08fn15,"Mediated JOLs",1,178,2024-11-08T21:30:51+00:00,3.6656770706177,3,versionB_stim.csv,ReadVersion.csv,Read,Read2,MAZE,PHONE,Study1,U,97,94,Test,User,-,,Recall,Recall2,3376,phone,100,1630,2488,1,1,,1
M20339108_KD,v4ew08fn15,"Mediated JOLs",1,179,2024-11-08T21:31:01+00:00,10.328530073166,3,versionB_stim.csv,ReadVersion.csv,Read,Read2,MEAT,KEYS,Study1,U,96,103,Test,User,-,,Recall,Recall2,10002,cow,0,8640,9072,0,0,,1
M20339108_KD,v4ew08fn15,"Mediated JOLs",1,180,2024-11-08T21:31:06+00:00,5.3649299144745,3,versionB_stim.csv,ReadVersion.csv,Read,Read2,WEDDING,HAND,Study1,M,72,63,Test,User,-,,Recall,Recall2,5112,hand,100,3874,4237,1,1,,1
M20339108_KD,v4ew08fn15,"Mediated JOLs",1,181,2024-11-08T21:31:13+00:00,6.8481440544128,3,versionB_stim.csv,ReadVersion.csv,Read,Read2,CRY,BEER,Study1,M,71,70,Test,User,-,,Recall,Recall2,6548,,0,-1,-1,0,0,,1
M20339108_KD,v4ew08fn15,"Mediated JOLs",1,182,2024-11-08T21:31:29+00:00,15.546205997467,3,versionB_stim.csv,ReadVersion.csv,Read,Read2,CRACKLE,ELECTION,Study1,U,94,67,Test,User,-,,Recall,Recall2,15194,,0,-1,-1,0,0,,1
M20339108_KD,v4ew08fn15,"Mediated JOLs",1,183,2024-11-08T21:31:38+00:00,9.5993640422821,3,versionB_stim.csv,ReadVersion.csv,Read,Read2,HARD,BALL,Study1,M,75,77,Test,User,-,,Recall,Recall2,9319,head,25,5348,8416,0,0,,1
M20339108_KD,v4ew08fn15,"Mediated JOLs",1,184,2024-11-08T21:31:42+00:00,3.5059819221497,3,versionB_stim.csv,ReadVersion.csv,Read,Read2,SCALP,HEAD,Study1,F,78,85,Test,User,-,,Recall,Recall2,3230,head,100,1893,2436,1,1,,1
M20339108_KD,v4ew08fn15,"Mediated JOLs",1,185,2024-11-08T21:31:48+00:00,6.3347458839417,3,versionB_stim.csv,ReadVersion.csv,Read,Read2,CIRCLE,FUN,Study1,M,68,76,Test,User,-,,Recall,Recall2,6025,rope,0,4680,5063,0,0,,1
M20339108_KD,v4ew08fn15,"Mediated JOLs",1,186,2024-11-08T21:31:51+00:00,3.0576310157776,3,versionB_stim.csv,ReadVersion.csv,Read,Read2,WAR,LOUD,Study1,M,63,65,Test,User,-,,Recall,Recall2,2810,loud,100,1374,1987,1,1,,1
M20339108_KD,v4ew08fn15,"Mediated JOLs",1,187,2024-11-08T21:32:03+00:00,11.850610017776,3,versionB_stim.csv,ReadVersion.csv,Read,Read2,LION,FLAG,Study1,M,61,69,Test,User,-,,Recall,Recall2,11586,wild,25,10246,10810,0,0,,1
M20339108_KD,v4ew08fn15,"Mediated JOLs",1,188,2024-11-08T21:32:07+00:00,3.6474120616913,3,versionB_stim.csv,ReadVersion.csv,Read,Read2,SIP,DRINK,Study1,F,87,97,Test,User,-,,Recall,Recall2,3351,drink,100,1676,2352,1,1,,1
M20339108_KD,v4ew08fn15,"Mediated JOLs",1,189,2024-11-08T21:32:13+00:00,6.6169059276581,3,versionB_stim.csv,ReadVersion.csv,Read,Read2,SWAN,BIRD,Study1,F,81,80,Test,User,-,,Recall,Recall2,6295,bird,100,4456,5170,1,1,,1
M20339108_KD,v4ew08fn15,"Mediated JOLs",1,190,2024-11-08T21:32:16+00:00,3.1739101409912,3,versionB_stim.csv,ReadVersion.csv,Read,Read2,CAKE,HAND,Study1,U,104,106,Test,User,-,,Recall,Recall2,2908,hand,100,1609,2066,1,1,,1
M20339108_KD,v4ew08fn15,"Mediated JOLs",1,191,2024-11-08T21:32:25+00:00,8.3583920001984,3,versionB_stim.csv,ReadVersion.csv,Read,Read2,TREE,PANCAKES,Study1,M,66,87,Test,User,-,,Recall,Recall2,7946,pancake,93.333333333333,5820,7126,0,1,,1
M20339108_KD,v4ew08fn15,"Mediated JOLs",1,192,2024-11-08T21:32:30+00:00,5.5553278923035,3,versionB_stim.csv,ReadVersion.csv,Read,Read2,HORSE,TIRE,Study1,M,69,64,Test,User,-,,Recall,Recall2,5306,,0,-1,-1,0,0,,1
M20339108_KD,v4ew08fn15,"Mediated JOLs",1,193,2024-11-08T21:32:35+00:00,5.10413813591,3,versionB_stim.csv,ReadVersion.csv,Read,Read2,LISTEN,FICTION,Study1,U,99,86,Test,User,-,,Recall,Recall2,4845,fiction,100,2754,3884,1,1,,1
M20339108_KD,v4ew08fn15,"Mediated JOLs",1,194,2024-11-08T21:32:40+00:00,4.9481909275055,3,versionB_stim.csv,ReadVersion.csv,Read,Read2,WORD,SENTENCE,Study1,F,82,90,Test,User,-,,Recall,Recall2,4648,,0,-1,-1,0,0,,1
M20339108_KD,v4ew08fn15,"Mediated JOLs",1,195,2024-11-08T21:32:49+00:00,8.5438690185547,3,versionB_stim.csv,ReadVersion.csv,Read,Read2,BEACH,SQUARE,Study1,M,62,75,Test,User,-,,Recall,Recall2,8227,shore,54.545454545455,5258,7308,0,0,,1
M20339108_KD,v4ew08fn15,"Mediated JOLs",1,196,2024-11-08T21:32:52+00:00,3.3581280708313,3,versionB_stim.csv,ReadVersion.csv,Read,Read2,DAY,BLACK,Study1,M,73,81,Test,User,-,,Recall,Recall2,3102,dark,44.444444444444,1642,2109,0,0,,1
M20339108_KD,v4ew08fn15,"Mediated JOLs",1,197,2024-11-08T21:32:58+00:00,5.3886179924011,3,versionB_stim.csv,ReadVersion.csv,Read,Read2,LITTER,TRASH,Study1,F,76,93,Test,User,-,,Recall,Recall2,5104,trash,100,3303,4343,1,1,,1
M20339108_KD,v4ew08fn15,"Mediated JOLs",1,198,2024-11-08T21:33:01+00:00,2.8598690032959,3,versionB_stim.csv,ReadVersion.csv,Read,Read2,AFFECTION,LOVE,Study1,F,86,89,Test,User,-,,Recall,Recall2,2576,love,100,1370,1880,1,1,,1
M20339108_KD,v4ew08fn15,"Mediated JOLs",1,199,2024-11-08T21:33:05+00:00,4.3449008464813,3,versionB_stim.csv,ReadVersion.csv,Read,Read2,TOOTH,COMB,Study1,M,74,78,Test,User,-,,Recall,Recall2,4040,comb,100,2640,3156,1,1,,1
M20339108_KD,v4ew08fn15,"Mediated JOLs",1,200,2024-11-08T21:33:08+00:00,3.4930210113525,3,versionB_stim.csv,ReadVersion.csv,Read,Read2,NAP,SLEEP,Study1,F,84,102,Test,User,-,,Recall,Recall2,3233,sleep,100,1134,1669,1,1,,1
M20339108_KD,v4ew08fn15,"Mediated JOLs",1,201,2024-11-08T21:33:11+00:00,3.0604410171509,3,versionB_stim.csv,ReadVersion.csv,Read,Read2,TUNA,FISH,Study1,F,90,66,Test,User,-,,Recall,Recall2,2777,fish,100,1473,1835,1,1,,1
M20339108_KD,v4ew08fn15,"Mediated JOLs",1,202,2024-11-08T21:33:19+00:00,7.1168210506439,3,versionB_stim.csv,ReadVersion.csv,Read,Read2,ROUGH,WORM,Study1,M,65,95,Test,User,-,,Recall,Recall2,6841,,0,-1,-1,0,0,,1
M20339108_KD,v4ew08fn15,"Mediated JOLs",1,203,2024-11-08T21:33:24+00:00,5.0307190418243,3,versionB_stim.csv,ReadVersion.csv,Read,Read2,KEYS,ROD,Study1,U,100,98,Test,User,-,,Recall,Recall2,4721,rod,100,3292,3748,1,1,,1
M20339108_KD,v4ew08fn15,"Mediated JOLs",1,204,2024-11-08T21:33:27+00:00,3.9494819641113,3,versionB_stim.csv,ReadVersion.csv,Read,Read2,SOON,BELT,Study1,U,101,91,Test,User,-,,Recall,Recall2,3657,later,44.444444444444,1656,2937,0,0,,1
M20339108_KD,v4ew08fn15,"Mediated JOLs",1,205,2024-11-08T21:33:31+00:00,3.4934768676758,3,versionB_stim.csv,ReadVersion.csv,Read,Read2,MULE,DONKEY,Study1,F,79,62,Test,User,-,,Recall,Recall2,3176,donkey,100,1447,2474,1,1,,1
M20339108_KD,v4ew08fn15,"Mediated JOLs",1,206,2024-11-08T21:33:36+00:00,4.9156351089478,3,versionB_stim.csv,ReadVersion.csv,Read,Read2,VEHICLE,CHARM,Study1,U,95,105,Test,User,-,,Recall,Recall2,4646,move,22.222222222222,2916,3651,0,0,,1
M20339108_KD,v4ew08fn15,"Mediated JOLs",1,207,2024-11-08T21:33:39+00:00,3.5370869636536,3,versionB_stim.csv,ReadVersion.csv,Read,Read2,TEMPERATURE,MORNING,Study1,U,103,74,Test,User,-,,Recall,Recall2,3322,morning,100,1700,2542,1,1,,1
M20339108_KD,v4ew08fn15,"Mediated JOLs",1,208,2024-11-08T21:33:45+00:00,5.6555080413818,3,versionB_stim.csv,ReadVersion.csv,Read,Read2,SIGN,TICK,Study1,U,102,92,Test,User,-,,Recall,Recall2,5390,stop,25,3778,4313,0,0,,1
M20339108_KD,v4ew08fn15,"Mediated JOLs",1,209,2024-11-08T21:33:52+00:00,7.0984690189362,3,versionB_stim.csv,ReadVersion.csv,Read,Read2,BAT,JUMP,Study1,M,67,72,Test,User,-,,Recall,Recall2,6845,,0,-1,-1,0,0,,1
M20339108_KD,v4ew08fn15,"Mediated JOLs",1,210,2024-11-08T21:33:56+00:00,3.7957389354706,3,versionB_stim.csv,ReadVersion.csv,Read,Read2,HYGIENE,CLEAN,Study1,F,83,96,Test,User,-,,Recall,Recall2,3479,clean,100,1495,2556,1,1,,1
M20339108_KD,v4ew08fn15,"Mediated JOLs",1,211,2024-11-08T21:33:58+00:00,2.2545969486237,3,versionB_stim.csv,ReadVersion.csv,Read,Read2,,,,,,0,Instruct,User,-,"You have completed this section. Please press Enter.",,Instruct7,1992,,,-1,-1,,,,1
M20339108_KD,v4ew08fn15,"Mediated JOLs",1,212,2024-11-08T21:34:04+00:00,6.202495098114,3,versionB_stim.csv,ReadVersion.csv,Read,Read2,,,,,,0,Instruct,User,-,"The following screen will ask you a few questions abour your experience today. You must complete these questions to receive credit.",,Instruct8,5896,,,-1,-1,,,,1
