Username,ID,ExperimentName,Session,Trial,Date,TimeDif,"Condition Number","Stimuli File","Order File","Condition Description","Condition Notes",Stimuli*Cue,Stimuli*Answer,Stimuli*Shuffle,"Stimuli*Stimuli Notes",Stimuli*Value,Procedure*Item,"Procedure*Trial Type","Procedure*Max Time","Procedure*Min Time",Procedure*Text,"Procedure*Procedure Notes",Procedure*Shuffle,Response*RT,Response*Response,Response*Accuracy,Response*RTfirst,Response*RTlast,Response*strictAcc,Response*lenientAcc,Response*focus,Response*Focus
M20351339_YR,i8n9xfuhvf,"Mediated JOLs",1,1,2024-11-11T20:39:05+00:00,6.18536901474,1,versionA_stim.csv,ReadVersion.csv,Read,Read1,,,,,,0,Instruct,-,5,"In this section, you will be presented with a series of word pairs. Please study each word pair! Your memory will be tested!",Initial_Instruct,Instruct1,5999,,,-1,-1,,,,1
M20351339_YR,i8n9xfuhvf,"Mediated JOLs",1,2,2024-11-11T20:39:06+00:00,1.5324001312256,1,versionA_stim.csv,ReadVersion.csv,Read,Read1,,,,,,0,Instruct,User,-,"You will now begin. Press Enter when you are ready to begin.",,Instruct16,1331,,,-1,-1,,,,1
M20351339_YR,i8n9xfuhvf,"Mediated JOLs",1,3,2024-11-11T20:39:09+00:00,2.2844738960266,1,versionA_stim.csv,ReadVersion.csv,Read,Read1,PEANUT,BUTTER,BUFFER1,Buffer,3,5,Study,User,-,,Study/JOL,BUFFER,2082,,,-1,-1,,,,1
M20351339_YR,i8n9xfuhvf,"Mediated JOLs",1,4,2024-11-11T20:39:11+00:00,2.2404019832611,1,versionA_stim.csv,ReadVersion.csv,Read,Read1,TREES,GREEN,BUFFER1,Buffer,1,2,Study,User,-,,Study/JOL,BUFFER,2037,,,-1,-1,,,,1
M20351339_YR,i8n9xfuhvf,"Mediated JOLs",1,5,2024-11-11T20:39:12+00:00,1.3844571113586,1,versionA_stim.csv,ReadVersion.csv,Read,Read1,SPACE,JAM,BUFFER1,Buffer,5,6,Study,User,-,,Study/JOL,BUFFER,1189,,,-1,-1,,,,1
M20351339_YR,i8n9xfuhvf,"Mediated JOLs",1,6,2024-11-11T20:39:15+00:00,2.2091519832611,1,versionA_stim.csv,ReadVersion.csv,Read,Read1,SCARE,FRIGHT,BUFFER1,Buffer,4,3,Study,User,-,,Study/JOL,BUFFER,2006,,,-1,-1,,,,1
M20351339_YR,i8n9xfuhvf,"Mediated JOLs",1,7,2024-11-11T20:39:19+00:00,4.2134320735931,1,versionA_stim.csv,ReadVersion.csv,Read,Read1,PITCHER,CATCHER,BUFFER1,Buffer,2,4,Study,User,-,,Study/JOL,BUFFER,4003,,,-1,-1,,,,1
M20351339_YR,i8n9xfuhvf,"Mediated JOLs",1,8,2024-11-11T20:39:22+00:00,3.0454478263855,1,versionA_stim.csv,ReadVersion.csv,Read,Read1,WAR,LOUD,Study1,M,8,20,Study,User,-,,Study/JOL,"Study Phase",2846,,,-1,-1,,,,1
M20351339_YR,i8n9xfuhvf,"Mediated JOLs",1,9,2024-11-11T20:39:26+00:00,3.7754361629486,1,versionA_stim.csv,ReadVersion.csv,Read,Read1,BIRTHDAY,APPLE,Study1,M,9,29,Study,User,-,,Study/JOL,"Study Phase",3564,,,-1,-1,,,,1
M20351339_YR,i8n9xfuhvf,"Mediated JOLs",1,10,2024-11-11T20:39:29+00:00,3.45534491539,1,versionA_stim.csv,ReadVersion.csv,Read,Read1,KEYS,ROD,Study1,U,45,30,Study,User,-,,Study/JOL,"Study Phase",3256,,,-1,-1,,,,1
M20351339_YR,i8n9xfuhvf,"Mediated JOLs",1,11,2024-11-11T20:39:32+00:00,2.9328780174255,1,versionA_stim.csv,ReadVersion.csv,Read,Read1,CEILING,RUG,Study1,M,15,38,Study,User,-,,Study/JOL,"Study Phase",2733,,,-1,-1,,,,1
M20351339_YR,i8n9xfuhvf,"Mediated JOLs",1,12,2024-11-11T20:39:39+00:00,6.7383060455322,1,versionA_stim.csv,ReadVersion.csv,Read,Read1,HYGIENE,CLEAN,Study1,F,28,24,Study,User,-,,Study/JOL,"Study Phase",6437,,,-1,-1,,,,1
M20351339_YR,i8n9xfuhvf,"Mediated JOLs",1,13,2024-11-11T20:39:45+00:00,6.2969899177551,1,versionA_stim.csv,ReadVersion.csv,Read,Read1,ROUGH,WORM,Study1,M,10,28,Study,User,-,,Study/JOL,"Study Phase",6093,,,-1,-1,,,,1
M20351339_YR,i8n9xfuhvf,"Mediated JOLs",1,14,2024-11-11T20:39:49+00:00,3.5871551036835,1,versionA_stim.csv,ReadVersion.csv,Read,Read1,AFFECTION,LOVE,Study1,F,31,27,Study,User,-,,Study/JOL,"Study Phase",3387,,,-1,-1,,,,1
M20351339_YR,i8n9xfuhvf,"Mediated JOLs",1,15,2024-11-11T20:39:51+00:00,2.1972768306732,1,versionA_stim.csv,ReadVersion.csv,Read,Read1,MULE,DONKEY,Study1,F,30,14,Study,User,-,,Study/JOL,"Study Phase",1995,,,-1,-1,,,,1
M20351339_YR,i8n9xfuhvf,"Mediated JOLs",1,16,2024-11-11T20:39:55+00:00,4.1315741539001,1,versionA_stim.csv,ReadVersion.csv,Read,Read1,CREDIT,CARD,Study1,F,33,17,Study,User,-,,Study/JOL,"Study Phase",3933,,,-1,-1,,,,1
M20351339_YR,i8n9xfuhvf,"Mediated JOLs",1,17,2024-11-11T20:40:00+00:00,4.690721988678,1,versionA_stim.csv,ReadVersion.csv,Read,Read1,ROOT,PLANT,Study1,F,25,33,Study,User,-,,Study/JOL,"Study Phase",4488,,,-1,-1,,,,1
M20351339_YR,i8n9xfuhvf,"Mediated JOLs",1,18,2024-11-11T20:40:04+00:00,4.2639398574829,1,versionA_stim.csv,ReadVersion.csv,Read,Read1,NAP,SLEEP,Study1,F,29,50,Study,User,-,,Study/JOL,"Study Phase",4063,,,-1,-1,,,,1
M20351339_YR,i8n9xfuhvf,"Mediated JOLs",1,19,2024-11-11T20:40:07+00:00,3.0780050754547,1,versionA_stim.csv,ReadVersion.csv,Read,Read1,TOOTH,COMB,Study1,M,19,12,Study,User,-,,Study/JOL,"Study Phase",2887,,,-1,-1,,,,1
M20351339_YR,i8n9xfuhvf,"Mediated JOLs",1,20,2024-11-11T20:40:11+00:00,3.8910000324249,1,versionA_stim.csv,ReadVersion.csv,Read,Read1,LITTER,TRASH,Study1,F,21,9,Study,User,-,,Study/JOL,"Study Phase",3625,,,-1,-1,,,,1
M20351339_YR,i8n9xfuhvf,"Mediated JOLs",1,21,2024-11-11T20:40:15+00:00,3.8002328872681,1,versionA_stim.csv,ReadVersion.csv,Read,Read1,CAKE,HAND,Study1,U,49,10,Study,User,-,,Study/JOL,"Study Phase",3599,,,-1,-1,,,,1
M20351339_YR,i8n9xfuhvf,"Mediated JOLs",1,22,2024-11-11T20:40:18+00:00,3.2667241096497,1,versionA_stim.csv,ReadVersion.csv,Read,Read1,FUZZY,BANG,Study1,U,50,39,Study,User,-,,Study/JOL,"Study Phase",3049,,,-1,-1,,,,1
M20351339_YR,i8n9xfuhvf,"Mediated JOLs",1,23,2024-11-11T20:40:22+00:00,4.6098930835724,1,versionA_stim.csv,ReadVersion.csv,Read,Read1,MEAT,KEYS,Study1,U,41,32,Study,User,-,,Study/JOL,"Study Phase",4410,,,-1,-1,,,,1
M20351339_YR,i8n9xfuhvf,"Mediated JOLs",1,24,2024-11-11T20:40:26+00:00,3.907595872879,1,versionA_stim.csv,ReadVersion.csv,Read,Read1,SIGN,TICK,Study1,U,47,45,Study,User,-,,Study/JOL,"Study Phase",3710,,,-1,-1,,,,1
M20351339_YR,i8n9xfuhvf,"Mediated JOLs",1,25,2024-11-11T20:40:33+00:00,6.3017959594727,1,versionA_stim.csv,ReadVersion.csv,Read,Read1,TUNA,FISH,Study1,F,35,36,Study,User,-,,Study/JOL,"Study Phase",6094,,,-1,-1,,,,1
M20351339_YR,i8n9xfuhvf,"Mediated JOLs",1,26,2024-11-11T20:40:38+00:00,5.5266070365906,1,versionA_stim.csv,ReadVersion.csv,Read,Read1,CRY,BEER,Study1,M,16,49,Study,User,-,,Study/JOL,"Study Phase",5327,,,-1,-1,,,,1
M20351339_YR,i8n9xfuhvf,"Mediated JOLs",1,27,2024-11-11T20:40:41+00:00,3.1546649932861,1,versionA_stim.csv,ReadVersion.csv,Read,Read1,MULE,DONKEY,Study1,F,24,11,Study,User,-,,Study/JOL,"Study Phase",2953,,,-1,-1,,,,1
M20351339_YR,i8n9xfuhvf,"Mediated JOLs",1,28,2024-11-11T20:40:45+00:00,4.0966970920563,1,versionA_stim.csv,ReadVersion.csv,Read,Read1,MAZE,PHONE,Study1,U,42,40,Study,User,-,,Study/JOL,"Study Phase",3899,,,-1,-1,,,,1
M20351339_YR,i8n9xfuhvf,"Mediated JOLs",1,29,2024-11-11T20:40:49+00:00,3.720715045929,1,versionA_stim.csv,ReadVersion.csv,Read,Read1,HARD,BALL,Study1,M,20,16,Study,User,-,,Study/JOL,"Study Phase",3449,,,-1,-1,,,,1
M20351339_YR,i8n9xfuhvf,"Mediated JOLs",1,30,2024-11-11T20:40:53+00:00,3.8178658485413,1,versionA_stim.csv,ReadVersion.csv,Read,Read1,SOON,BELT,Study1,U,46,7,Study,User,-,,Study/JOL,"Study Phase",3602,,,-1,-1,,,,1
M20351339_YR,i8n9xfuhvf,"Mediated JOLs",1,31,2024-11-11T20:40:57+00:00,3.8732309341431,1,versionA_stim.csv,ReadVersion.csv,Read,Read1,SWAN,BIRD,Study1,F,26,25,Study,User,-,,Study/JOL,"Study Phase",3679,,,-1,-1,,,,1
M20351339_YR,i8n9xfuhvf,"Mediated JOLs",1,32,2024-11-11T20:41:01+00:00,4.1849610805511,1,versionA_stim.csv,ReadVersion.csv,Read,Read1,BAT,JUMP,Study1,M,12,44,Study,User,-,,Study/JOL,"Study Phase",3979,,,-1,-1,,,,1
M20351339_YR,i8n9xfuhvf,"Mediated JOLs",1,33,2024-11-11T20:41:06+00:00,4.4512739181519,1,versionA_stim.csv,ReadVersion.csv,Read,Read1,ORCHID,FLOWER,Study1,F,34,47,Study,User,-,,Study/JOL,"Study Phase",4087,,,-1,-1,,,,1
M20351339_YR,i8n9xfuhvf,"Mediated JOLs",1,34,2024-11-11T20:41:11+00:00,5.6949901580811,1,versionA_stim.csv,ReadVersion.csv,Read,Read1,SIP,DRINK,Study1,F,32,34,Study,User,-,,Study/JOL,"Study Phase",5421,,,-1,-1,,,,1
M20351339_YR,i8n9xfuhvf,"Mediated JOLs",1,35,2024-11-11T20:41:17+00:00,5.3284480571747,1,versionA_stim.csv,ReadVersion.csv,Read,Read1,LISTEN,FICTION,Study1,U,44,31,Study,User,-,,Study/JOL,"Study Phase",5116,,,-1,-1,,,,1
M20351339_YR,i8n9xfuhvf,"Mediated JOLs",1,36,2024-11-11T20:41:22+00:00,5.7134280204773,1,versionA_stim.csv,ReadVersion.csv,Read,Read1,WEDDING,HAND,Study1,M,17,8,Study,User,-,,Study/JOL,"Study Phase",5500,,,-1,-1,,,,1
M20351339_YR,i8n9xfuhvf,"Mediated JOLs",1,37,2024-11-11T20:41:28+00:00,5.6533758640289,1,versionA_stim.csv,ReadVersion.csv,Read,Read1,CIRCLE,FUN,Study1,M,13,26,Study,User,-,,Study/JOL,"Study Phase",5441,,,-1,-1,,,,1
M20351339_YR,i8n9xfuhvf,"Mediated JOLs",1,38,2024-11-11T20:41:33+00:00,5.1101589202881,1,versionA_stim.csv,ReadVersion.csv,Read,Read1,TREE,PANCAKES,Study1,M,11,48,Study,User,-,,Study/JOL,"Study Phase",4911,,,-1,-1,,,,1
M20351339_YR,i8n9xfuhvf,"Mediated JOLs",1,39,2024-11-11T20:41:38+00:00,4.9233160018921,1,versionA_stim.csv,ReadVersion.csv,Read,Read1,CRACKLE,ELECTION,Study1,U,39,15,Study,User,-,,Study/JOL,"Study Phase",4723,,,-1,-1,,,,1
M20351339_YR,i8n9xfuhvf,"Mediated JOLs",1,40,2024-11-11T20:41:43+00:00,4.6832890510559,1,versionA_stim.csv,ReadVersion.csv,Read,Read1,DAY,BLACK,Study1,M,18,37,Study,User,-,,Study/JOL,"Study Phase",4481,,,-1,-1,,,,1
M20351339_YR,i8n9xfuhvf,"Mediated JOLs",1,41,2024-11-11T20:41:47+00:00,3.9969971179962,1,versionA_stim.csv,ReadVersion.csv,Read,Read1,BEACH,SQUARE,Study1,M,7,35,Study,User,-,,Study/JOL,"Study Phase",3713,,,-1,-1,,,,1
M20351339_YR,i8n9xfuhvf,"Mediated JOLs",1,42,2024-11-11T20:41:53+00:00,6.1666920185089,1,versionA_stim.csv,ReadVersion.csv,Read,Read1,MIRROR,MAROON,Study1,U,36,46,Study,User,-,,Study/JOL,"Study Phase",5954,,,-1,-1,,,,1
M20351339_YR,i8n9xfuhvf,"Mediated JOLs",1,43,2024-11-11T20:41:56+00:00,3.4732539653778,1,versionA_stim.csv,ReadVersion.csv,Read,Read1,GIVE,STEAK,Study1,U,38,21,Study,User,-,,Study/JOL,"Study Phase",3265,,,-1,-1,,,,1
M20351339_YR,i8n9xfuhvf,"Mediated JOLs",1,44,2024-11-11T20:42:02+00:00,5.8634798526764,1,versionA_stim.csv,ReadVersion.csv,Read,Read1,STRETCH,CLOTH,Study1,U,37,23,Study,User,-,,Study/JOL,"Study Phase",5660,,,-1,-1,,,,1
M20351339_YR,i8n9xfuhvf,"Mediated JOLs",1,45,2024-11-11T20:42:07+00:00,5.1810920238495,1,versionA_stim.csv,ReadVersion.csv,Read,Read1,HORSE,TIRE,Study1,M,14,43,Study,User,-,,Study/JOL,"Study Phase",4952,,,-1,-1,,,,1
M20351339_YR,i8n9xfuhvf,"Mediated JOLs",1,46,2024-11-11T20:42:13+00:00,6.1069781780243,1,versionA_stim.csv,ReadVersion.csv,Read,Read1,VEHICLE,CHARM,Study1,U,40,22,Study,User,-,,Study/JOL,"Study Phase",5881,,,-1,-1,,,,1
M20351339_YR,i8n9xfuhvf,"Mediated JOLs",1,47,2024-11-11T20:42:18+00:00,4.2925698757172,1,versionA_stim.csv,ReadVersion.csv,Read,Read1,TEMPERATURE,MORNING,Study1,U,48,51,Study,User,-,,Study/JOL,"Study Phase",4087,,,-1,-1,,,,1
M20351339_YR,i8n9xfuhvf,"Mediated JOLs",1,48,2024-11-11T20:42:23+00:00,5.1429100036621,1,versionA_stim.csv,ReadVersion.csv,Read,Read1,WORD,SENTENCE,Study1,F,27,41,Study,User,-,,Study/JOL,"Study Phase",4893,,,-1,-1,,,,1
M20351339_YR,i8n9xfuhvf,"Mediated JOLs",1,49,2024-11-11T20:42:26+00:00,3.3416609764099,1,versionA_stim.csv,ReadVersion.csv,Read,Read1,SCALP,HEAD,Study1,F,23,19,Study,User,-,,Study/JOL,"Study Phase",3120,,,-1,-1,,,,1
M20351339_YR,i8n9xfuhvf,"Mediated JOLs",1,50,2024-11-11T20:42:30+00:00,4.1355090141296,1,versionA_stim.csv,ReadVersion.csv,Read,Read1,SHELL,SHAKE,Study1,U,43,18,Study,User,-,,Study/JOL,"Study Phase",3923,,,-1,-1,,,,1
M20351339_YR,i8n9xfuhvf,"Mediated JOLs",1,51,2024-11-11T20:42:35+00:00,5.1093530654907,1,versionA_stim.csv,ReadVersion.csv,Read,Read1,LION,FLAG,Study1,M,6,13,Study,User,-,,Study/JOL,"Study Phase",4848,,,-1,-1,,,,1
M20351339_YR,i8n9xfuhvf,"Mediated JOLs",1,52,2024-11-11T20:42:41+00:00,5.3255000114441,1,versionA_stim.csv,ReadVersion.csv,Read,Read1,WAGE,MONEY,Study1,F,22,42,Study,User,-,,Study/JOL,"Study Phase",5106,,,-1,-1,,,,1
M20351339_YR,i8n9xfuhvf,"Mediated JOLs",1,53,2024-11-11T20:42:46+00:00,5.0766370296478,1,versionA_stim.csv,ReadVersion.csv,Read,Read1,ICE,FROZEN,BUFFER4,Buffer,109,107,Study,User,-,,Study/JOL,BUFFER2,4878,,,-1,-1,,,,1
M20351339_YR,i8n9xfuhvf,"Mediated JOLs",1,54,2024-11-11T20:42:52+00:00,6.1026928424835,1,versionA_stim.csv,ReadVersion.csv,Read,Read1,CAMP,ADVENTURE,BUFFER4,Buffer,110,108,Study,User,-,,Study/JOL,BUFFER2,5900,,,-1,-1,,,,1
M20351339_YR,i8n9xfuhvf,"Mediated JOLs",1,55,2024-11-11T20:42:59+00:00,7.0208711624146,1,versionA_stim.csv,ReadVersion.csv,Read,Read1,THING,STUFF,BUFFER2,Buffer,55,55,Study,User,-,,Study/JOL,BUFFER2,6814,,,-1,-1,,,,1
M20351339_YR,i8n9xfuhvf,"Mediated JOLs",1,56,2024-11-11T20:43:05+00:00,5.5771179199219,1,versionA_stim.csv,ReadVersion.csv,Read,Read1,SHERRIF,POLICE,BUFFER2,Buffer,52,54,Study,User,-,,Study/JOL,BUFFER2,5367,,,-1,-1,,,,1
M20351339_YR,i8n9xfuhvf,"Mediated JOLs",1,57,2024-11-11T20:43:09+00:00,4.3021168708801,1,versionA_stim.csv,ReadVersion.csv,Read,Read1,SHRIMP,FISH,BUFFER4,Buffer,108,111,Study,User,-,,Study/JOL,BUFFER2,4021,,,-1,-1,,,,1
M20351339_YR,i8n9xfuhvf,"Mediated JOLs",1,58,2024-11-11T20:43:11+00:00,2.0077841281891,1,versionA_stim.csv,ReadVersion.csv,Read,Read1,,,,,,0,Instruct,User,-,"You have completed this section. Please press Enter.",Filler_Instruction,Instruct2,1777,,,-1,-1,,,,1
M20351339_YR,i8n9xfuhvf,"Mediated JOLs",1,59,2024-11-11T20:45:11+00:00,120.2526268959,1,versionA_stim.csv,ReadVersion.csv,Read,Read1,,,,,,0,FreeRecall,120,120,"Please list the 50 US states in alphabetical order. The task will automatically advance to the next screen after two minutes.",,Filler1,120003,"TEXAS ALASKA CALIFORNIA FLORIDA INDIANA GEROGE ARIZON VIRGINIA OHIO MASSACHUSETTS MICHIGAN NORTH CAROLINA WASHINGTON COLORADO NEVADA ALABAMA MARYLAND MINNESOTA WISCONSIN NEW JERSEY ILLINOIS OREGON UTAH NEW MEXICO WYOMING MISSISSIPPI MONT",0,9610,119959,0,0,,1
M20351339_YR,i8n9xfuhvf,"Mediated JOLs",1,60,2024-11-11T20:45:25+00:00,14.058111190796,1,versionA_stim.csv,ReadVersion.csv,Read,Read1,,,,,,0,Instruct,-,10,"You will now be presented with the first word from each of the previously studied item pairs. Please type the missing word. If you do not know the word, you may guess or press Enter to skip forward to the next pair.",,Instruct3,13619,,,-1,-1,,,,1
M20351339_YR,i8n9xfuhvf,"Mediated JOLs",1,61,2024-11-11T20:45:29+00:00,3.5147938728333,1,versionA_stim.csv,ReadVersion.csv,Read,Read1,LION,FLAG,Study1,M,6,13,Test,User,-,,Recall,Recall1,3294,FLAG,100,1928,2492,1,1,,1
M20351339_YR,i8n9xfuhvf,"Mediated JOLs",1,62,2024-11-11T20:45:32+00:00,2.952486038208,1,versionA_stim.csv,ReadVersion.csv,Read,Read1,STRETCH,CLOTH,Study1,U,37,23,Test,User,-,,Recall,Recall1,2727,CLOTH,100,1214,1735,1,1,,1
M20351339_YR,i8n9xfuhvf,"Mediated JOLs",1,63,2024-11-11T20:45:34+00:00,2.6112689971924,1,versionA_stim.csv,ReadVersion.csv,Read,Read1,CEILING,RUG,Study1,M,15,38,Test,User,-,,Recall,Recall1,2406,RUG,100,1350,1671,1,1,,1
M20351339_YR,i8n9xfuhvf,"Mediated JOLs",1,64,2024-11-11T20:45:37+00:00,2.9759268760681,1,versionA_stim.csv,ReadVersion.csv,Read,Read1,TUNA,FISH,Study1,F,35,36,Test,User,-,,Recall,Recall1,2758,FISH,100,1220,1591,1,1,,1
M20351339_YR,i8n9xfuhvf,"Mediated JOLs",1,65,2024-11-11T20:46:06+00:00,28.726323127747,1,versionA_stim.csv,ReadVersion.csv,Read,Read1,MIRROR,MAROON,Study1,U,36,46,Test,User,-,,Recall,Recall1,28505,,0,-1,-1,0,0,,1
M20351339_YR,i8n9xfuhvf,"Mediated JOLs",1,66,2024-11-11T20:46:09+00:00,2.588366985321,1,versionA_stim.csv,ReadVersion.csv,Read,Read1,WEDDING,HAND,Study1,M,17,8,Test,User,-,,Recall,Recall1,2293,HAND,100,1302,1644,1,1,,1
M20351339_YR,i8n9xfuhvf,"Mediated JOLs",1,67,2024-11-11T20:46:11+00:00,2.3558530807495,1,versionA_stim.csv,ReadVersion.csv,Read,Read1,GIVE,STEAK,Study1,U,38,21,Test,User,-,,Recall,Recall1,2139,TAKE,66.666666666667,1199,1519,0,0,,1
M20351339_YR,i8n9xfuhvf,"Mediated JOLs",1,68,2024-11-11T20:46:16+00:00,4.6946189403534,1,versionA_stim.csv,ReadVersion.csv,Read,Read1,CIRCLE,FUN,Study1,M,13,26,Test,User,-,,Recall,Recall1,4488,,0,-1,-1,0,0,,1
M20351339_YR,i8n9xfuhvf,"Mediated JOLs",1,69,2024-11-11T20:46:27+00:00,11.622680902481,1,versionA_stim.csv,ReadVersion.csv,Read,Read1,CRACKLE,ELECTION,Study1,U,39,15,Test,User,-,,Recall,Recall1,11421,ELECTION,100,6176,10476,1,1,,1
M20351339_YR,i8n9xfuhvf,"Mediated JOLs",1,70,2024-11-11T20:46:32+00:00,4.7340931892395,1,versionA_stim.csv,ReadVersion.csv,Read,Read1,SWAN,BIRD,Study1,F,26,25,Test,User,-,,Recall,Recall1,4533,,0,-1,-1,0,0,,1
M20351339_YR,i8n9xfuhvf,"Mediated JOLs",1,71,2024-11-11T20:46:37+00:00,5.3554508686066,1,versionA_stim.csv,ReadVersion.csv,Read,Read1,DAY,BLACK,Study1,M,18,37,Test,User,-,,Recall,Recall1,5147,BLACK,100,3694,4339,1,1,,1
M20351339_YR,i8n9xfuhvf,"Mediated JOLs",1,72,2024-11-11T20:46:50+00:00,12.445301055908,1,versionA_stim.csv,ReadVersion.csv,Read,Read1,HORSE,TIRE,Study1,M,14,43,Test,User,-,,Recall,Recall1,12220,RIDE,50,3076,11965,0,0,,1
M20351339_YR,i8n9xfuhvf,"Mediated JOLs",1,73,2024-11-11T20:46:53+00:00,3.4566550254822,1,versionA_stim.csv,ReadVersion.csv,Read,Read1,SIP,DRINK,Study1,F,32,34,Test,User,-,,Recall,Recall1,3243,,0,-1,-1,0,0,,1
M20351339_YR,i8n9xfuhvf,"Mediated JOLs",1,74,2024-11-11T20:46:58+00:00,5.0017449855804,1,versionA_stim.csv,ReadVersion.csv,Read,Read1,LISTEN,FICTION,Study1,U,44,31,Test,User,-,,Recall,Recall1,4790,,0,-1,-1,0,0,,1
M20351339_YR,i8n9xfuhvf,"Mediated JOLs",1,75,2024-11-11T20:47:02+00:00,3.5464780330658,1,versionA_stim.csv,ReadVersion.csv,Read,Read1,ROOT,PLANT,Study1,F,25,33,Test,User,-,,Recall,Recall1,3335,PLANT,100,1440,2172,1,1,,1
M20351339_YR,i8n9xfuhvf,"Mediated JOLs",1,76,2024-11-11T20:47:07+00:00,4.934830904007,1,versionA_stim.csv,ReadVersion.csv,Read,Read1,NAP,SLEEP,Study1,F,29,50,Test,User,-,,Recall,Recall1,4718,,0,-1,-1,0,0,,1
M20351339_YR,i8n9xfuhvf,"Mediated JOLs",1,77,2024-11-11T20:47:12+00:00,5.7054960727692,1,versionA_stim.csv,ReadVersion.csv,Read,Read1,MULE,DONKEY,Study1,F,30,14,Test,User,-,,Recall,Recall1,5477,DONKEY,100,2212,4529,1,1,,1
M20351339_YR,i8n9xfuhvf,"Mediated JOLs",1,78,2024-11-11T20:47:17+00:00,4.1636509895325,1,versionA_stim.csv,ReadVersion.csv,Read,Read1,TOOTH,COMB,Study1,M,19,12,Test,User,-,,Recall,Recall1,3955,BRUSH,22.222222222222,1434,3187,0,0,,1
M20351339_YR,i8n9xfuhvf,"Mediated JOLs",1,79,2024-11-11T20:47:30+00:00,12.999539852142,1,versionA_stim.csv,ReadVersion.csv,Read,Read1,WAR,LOUD,Study1,M,8,20,Test,User,-,,Recall,Recall1,12780,,0,-1,-1,0,0,,1
M20351339_YR,i8n9xfuhvf,"Mediated JOLs",1,80,2024-11-11T20:47:33+00:00,3.3891851902008,1,versionA_stim.csv,ReadVersion.csv,Read,Read1,MEAT,KEYS,Study1,U,41,32,Test,User,-,,Recall,Recall1,3185,KEYS,100,1742,2732,1,1,,1
M20351339_YR,i8n9xfuhvf,"Mediated JOLs",1,81,2024-11-11T20:47:38+00:00,4.9821770191193,1,versionA_stim.csv,ReadVersion.csv,Read,Read1,TEMPERATURE,MORNING,Study1,U,48,51,Test,User,-,,Recall,Recall1,4765,MORNING,100,2286,3243,1,1,,1
M20351339_YR,i8n9xfuhvf,"Mediated JOLs",1,82,2024-11-11T20:47:41+00:00,3.1709809303284,1,versionA_stim.csv,ReadVersion.csv,Read,Read1,AFFECTION,LOVE,Study1,F,31,27,Test,User,-,,Recall,Recall1,2962,LOVE,100,1872,2260,1,1,,1
M20351339_YR,i8n9xfuhvf,"Mediated JOLs",1,83,2024-11-11T20:47:46+00:00,5.1879899501801,1,versionA_stim.csv,ReadVersion.csv,Read,Read1,CAKE,HAND,Study1,U,49,10,Test,User,-,,Recall,Recall1,4978,HAND,100,1227,3324,1,1,,1
M20351339_YR,i8n9xfuhvf,"Mediated JOLs",1,84,2024-11-11T20:47:52+00:00,5.3986539840698,1,versionA_stim.csv,ReadVersion.csv,Read,Read1,VEHICLE,CHARM,Study1,U,40,22,Test,User,-,,Recall,Recall1,5189,,0,3042,3592,0,0,,1
M20351339_YR,i8n9xfuhvf,"Mediated JOLs",1,85,2024-11-11T20:47:54+00:00,2.4355261325836,1,versionA_stim.csv,ReadVersion.csv,Read,Read1,CREDIT,CARD,Study1,F,33,17,Test,User,-,,Recall,Recall1,2219,CARD,100,1089,1578,1,1,,1
M20351339_YR,i8n9xfuhvf,"Mediated JOLs",1,86,2024-11-11T20:47:57+00:00,2.5181248188019,1,versionA_stim.csv,ReadVersion.csv,Read,Read1,ORCHID,FLOWER,Study1,F,34,47,Test,User,-,,Recall,Recall1,2307,FLOWER,100,1234,1983,1,1,,1
M20351339_YR,i8n9xfuhvf,"Mediated JOLs",1,87,2024-11-11T20:48:00+00:00,3.8350801467896,1,versionA_stim.csv,ReadVersion.csv,Read,Read1,BIRTHDAY,APPLE,Study1,M,9,29,Test,User,-,,Recall,Recall1,3625,,0,1551,1551,0,0,,1
M20351339_YR,i8n9xfuhvf,"Mediated JOLs",1,88,2024-11-11T20:48:04+00:00,3.1661698818207,1,versionA_stim.csv,ReadVersion.csv,Read,Read1,MULE,DONKEY,Study1,F,24,11,Test,User,-,,Recall,Recall1,2943,DONKEY,100,929,2160,1,1,,1
M20351339_YR,i8n9xfuhvf,"Mediated JOLs",1,89,2024-11-11T20:48:10+00:00,6.0021250247955,1,versionA_stim.csv,ReadVersion.csv,Read,Read1,TREE,PANCAKES,Study1,M,11,48,Test,User,-,,Recall,Recall1,5777,GREEN,15.384615384615,4706,5511,0,0,,1
M20351339_YR,i8n9xfuhvf,"Mediated JOLs",1,90,2024-11-11T20:48:12+00:00,2.1953670978546,1,versionA_stim.csv,ReadVersion.csv,Read,Read1,SCALP,HEAD,Study1,F,23,19,Test,User,-,,Recall,Recall1,1984,,0,-1,-1,0,0,,1
M20351339_YR,i8n9xfuhvf,"Mediated JOLs",1,91,2024-11-11T20:48:14+00:00,2.4664850234985,1,versionA_stim.csv,ReadVersion.csv,Read,Read1,BEACH,SQUARE,Study1,M,7,35,Test,User,-,,Recall,Recall1,2246,SAND,40,1137,1540,0,0,,1
M20351339_YR,i8n9xfuhvf,"Mediated JOLs",1,92,2024-11-11T20:48:17+00:00,2.5521140098572,1,versionA_stim.csv,ReadVersion.csv,Read,Read1,BAT,JUMP,Study1,M,12,44,Test,User,-,,Recall,Recall1,2336,,0,-1,-1,0,0,,1
M20351339_YR,i8n9xfuhvf,"Mediated JOLs",1,93,2024-11-11T20:48:19+00:00,2.2152478694916,1,versionA_stim.csv,ReadVersion.csv,Read,Read1,CRY,BEER,Study1,M,16,49,Test,User,-,,Recall,Recall1,1996,,0,-1,-1,0,0,,1
M20351339_YR,i8n9xfuhvf,"Mediated JOLs",1,94,2024-11-11T20:48:22+00:00,3.2024550437927,1,versionA_stim.csv,ReadVersion.csv,Read,Read1,HARD,BALL,Study1,M,20,16,Test,User,-,,Recall,Recall1,2994,,0,-1,-1,0,0,,1
M20351339_YR,i8n9xfuhvf,"Mediated JOLs",1,95,2024-11-11T20:48:25+00:00,2.7499449253082,1,versionA_stim.csv,ReadVersion.csv,Read,Read1,LITTER,TRASH,Study1,F,21,9,Test,User,-,,Recall,Recall1,2532,TRASH,100,1134,1737,1,1,,1
M20351339_YR,i8n9xfuhvf,"Mediated JOLs",1,96,2024-11-11T20:48:29+00:00,3.5821759700775,1,versionA_stim.csv,ReadVersion.csv,Read,Read1,MAZE,PHONE,Study1,U,42,40,Test,User,-,,Recall,Recall1,3380,HAZE,44.444444444444,1543,3187,0,0,,1
M20351339_YR,i8n9xfuhvf,"Mediated JOLs",1,97,2024-11-11T20:48:32+00:00,3.7262020111084,1,versionA_stim.csv,ReadVersion.csv,Read,Read1,SIGN,TICK,Study1,U,47,45,Test,User,-,,Recall,Recall1,3515,,0,-1,-1,0,0,,1
M20351339_YR,i8n9xfuhvf,"Mediated JOLs",1,98,2024-11-11T20:48:35+00:00,3.1311800479889,1,versionA_stim.csv,ReadVersion.csv,Read,Read1,WORD,SENTENCE,Study1,F,27,41,Test,User,-,,Recall,Recall1,2926,SEARCH,42.857142857143,1332,2170,0,0,,1
M20351339_YR,i8n9xfuhvf,"Mediated JOLs",1,99,2024-11-11T20:48:37+00:00,1.5355160236359,1,versionA_stim.csv,ReadVersion.csv,Read,Read1,WAGE,MONEY,Study1,F,22,42,Test,User,-,,Recall,Recall1,1269,,0,-1,-1,0,0,,1
M20351339_YR,i8n9xfuhvf,"Mediated JOLs",1,100,2024-11-11T20:48:40+00:00,2.8705549240112,1,versionA_stim.csv,ReadVersion.csv,Read,Read1,FUZZY,BANG,Study1,U,50,39,Test,User,-,,Recall,Recall1,2618,BANG,100,1583,1953,1,1,,1
M20351339_YR,i8n9xfuhvf,"Mediated JOLs",1,101,2024-11-11T20:48:42+00:00,1.9456360340118,1,versionA_stim.csv,ReadVersion.csv,Read,Read1,SHELL,SHAKE,Study1,U,43,18,Test,User,-,,Recall,Recall1,1733,,0,-1,-1,0,0,,1
M20351339_YR,i8n9xfuhvf,"Mediated JOLs",1,102,2024-11-11T20:48:44+00:00,2.5487201213837,1,versionA_stim.csv,ReadVersion.csv,Read,Read1,HYGIENE,CLEAN,Study1,F,28,24,Test,User,-,,Recall,Recall1,2352,CLEAN,100,1027,1539,1,1,,1
M20351339_YR,i8n9xfuhvf,"Mediated JOLs",1,103,2024-11-11T20:48:47+00:00,3.0355679988861,1,versionA_stim.csv,ReadVersion.csv,Read,Read1,SOON,BELT,Study1,U,46,7,Test,User,-,,Recall,Recall1,2768,LATER,44.444444444444,2024,2606,0,0,,1
M20351339_YR,i8n9xfuhvf,"Mediated JOLs",1,104,2024-11-11T20:48:51+00:00,3.5856039524078,1,versionA_stim.csv,ReadVersion.csv,Read,Read1,KEYS,ROD,Study1,U,45,30,Test,User,-,,Recall,Recall1,3368,,0,-1,-1,0,0,,1
M20351339_YR,i8n9xfuhvf,"Mediated JOLs",1,105,2024-11-11T20:48:53+00:00,1.8697910308838,1,versionA_stim.csv,ReadVersion.csv,Read,Read1,ROUGH,WORM,Study1,M,10,28,Test,User,-,,Recall,Recall1,1659,,0,-1,-1,0,0,,1
M20351339_YR,i8n9xfuhvf,"Mediated JOLs",1,106,2024-11-11T20:49:04+00:00,11.193780899048,1,versionA_stim.csv,ReadVersion.csv,Read,Read1,,,,,,0,Instruct,-,10,"You will now be presented with a new set of word pairs. Please study each pair. Remember that your memory will be tested! When finished, press Enter to move to the next pair.",Initial_Instruct,Instruct4,10896,,,-1,-1,,,,1
M20351339_YR,i8n9xfuhvf,"Mediated JOLs",1,107,2024-11-11T20:49:05+00:00,1.1802320480347,1,versionA_stim.csv,ReadVersion.csv,Read,Read1,,,,,,0,Instruct,User,-,"Press Enter when you are readty to begin",,Instruct11,971,,,-1,-1,,,,1
M20351339_YR,i8n9xfuhvf,"Mediated JOLs",1,108,2024-11-11T20:49:11+00:00,6.2624180316925,1,versionA_stim.csv,ReadVersion.csv,Read,Read1,MOON,SPACE,BUFFER2,Buffer,54,52,Study,User,-,,Study/JOL,BUFFER2,6053,,,-1,-1,,,,1
M20351339_YR,i8n9xfuhvf,"Mediated JOLs",1,109,2024-11-11T20:49:16+00:00,4.5361340045929,1,versionA_stim.csv,ReadVersion.csv,Read,Read1,NOODLE,STRING,BUFFER4,Buffer,107,109,Study,User,-,,Study/JOL,BUFFER2,4319,,,-1,-1,,,,1
M20351339_YR,i8n9xfuhvf,"Mediated JOLs",1,110,2024-11-11T20:49:19+00:00,3.4137849807739,1,versionA_stim.csv,ReadVersion.csv,Read,Read1,OCTOBER,SPOOKY,BUFFER3,Buffer,60,57,Study,User,-,,Study/JOL,BUFFER2,3200,,,-1,-1,,,,1
M20351339_YR,i8n9xfuhvf,"Mediated JOLs",1,111,2024-11-11T20:49:26+00:00,6.2300019264221,1,versionA_stim.csv,ReadVersion.csv,Read,Read1,TOOL,SHED,BUFFER3,Buffer,58,60,Study,User,-,,Study/JOL,BUFFER2,6017,,,-1,-1,,,,1
M20351339_YR,i8n9xfuhvf,"Mediated JOLs",1,112,2024-11-11T20:49:30+00:00,4.0350551605225,1,versionA_stim.csv,ReadVersion.csv,Read,Read1,GEESE,GOOSE,BUFFER2,Buffer,51,53,Study,User,-,,Study/JOL,BUFFER2,3824,,,-1,-1,,,,1
M20351339_YR,i8n9xfuhvf,"Mediated JOLs",1,113,2024-11-11T20:49:34+00:00,4.6663339138031,1,versionA_stim.csv,ReadVersion.csv,Read,Read1,BENCH,HORN,Study2,U,98,91,Study,User,-,,Study/JOL,"Study Phase2",4457,,,-1,-1,,,,1
M20351339_YR,i8n9xfuhvf,"Mediated JOLs",1,114,2024-11-11T20:49:42+00:00,7.3699650764465,1,versionA_stim.csv,ReadVersion.csv,Read,Read1,DOCUMENT,PAPER,Study2,F,82,90,Study,User,-,,Study/JOL,"Study Phase2",7158,,,-1,-1,,,,1
M20351339_YR,i8n9xfuhvf,"Mediated JOLs",1,115,2024-11-11T20:49:47+00:00,5.3616218566895,1,versionA_stim.csv,ReadVersion.csv,Read,Read1,ATTIRE,CLOTHES,Study2,F,79,65,Study,User,-,,Study/JOL,"Study Phase2",5143,,,-1,-1,,,,1
M20351339_YR,i8n9xfuhvf,"Mediated JOLs",1,116,2024-11-11T20:49:54+00:00,6.9802360534668,1,versionA_stim.csv,ReadVersion.csv,Read,Read1,CHISEL,HAMMER,Study2,F,78,93,Study,User,-,,Study/JOL,"Study Phase2",6774,,,-1,-1,,,,1
M20351339_YR,i8n9xfuhvf,"Mediated JOLs",1,117,2024-11-11T20:50:01+00:00,7.3003931045532,1,versionA_stim.csv,ReadVersion.csv,Read,Read1,REALITY,WATER,Study2,M,64,75,Study,User,-,,Study/JOL,"Study Phase2",7097,,,-1,-1,,,,1
M20351339_YR,i8n9xfuhvf,"Mediated JOLs",1,118,2024-11-11T20:50:08+00:00,6.5334038734436,1,versionA_stim.csv,ReadVersion.csv,Read,Read1,RAKE,PLANT,Study2,M,69,83,Study,User,-,,Study/JOL,"Study Phase2",6326,,,-1,-1,,,,1
M20351339_YR,i8n9xfuhvf,"Mediated JOLs",1,119,2024-11-11T20:50:14+00:00,6.2598481178284,1,versionA_stim.csv,ReadVersion.csv,Read,Read1,CHOP,CUT,Study2,F,77,81,Study,User,-,,Study/JOL,"Study Phase2",6010,,,-1,-1,,,,1
M20351339_YR,i8n9xfuhvf,"Mediated JOLs",1,120,2024-11-11T20:50:19+00:00,4.9302759170532,1,versionA_stim.csv,ReadVersion.csv,Read,Read1,SUGAR,RIDDLE,Study2,U,95,74,Study,User,-,,Study/JOL,"Study Phase2",4695,,,-1,-1,,,,1
M20351339_YR,i8n9xfuhvf,"Mediated JOLs",1,121,2024-11-11T20:50:22+00:00,2.5328969955444,1,versionA_stim.csv,ReadVersion.csv,Read,Read1,BOTH,OUNCE,Study2,U,102,72,Study,User,-,,Study/JOL,"Study Phase2",2309,,,-1,-1,,,,1
M20351339_YR,i8n9xfuhvf,"Mediated JOLs",1,122,2024-11-11T20:50:24+00:00,2.1290900707245,1,versionA_stim.csv,ReadVersion.csv,Read,Read1,HAPPY,CAR,Study2,U,92,103,Study,User,-,,Study/JOL,"Study Phase2",1917,,,-1,-1,,,,1
M20351339_YR,i8n9xfuhvf,"Mediated JOLs",1,123,2024-11-11T20:50:26+00:00,1.8189358711243,1,versionA_stim.csv,ReadVersion.csv,Read,Read1,SOAP,THIRST,Study2,M,67,84,Study,User,-,,Study/JOL,"Study Phase2",1600,,,-1,-1,,,,1
M20351339_YR,i8n9xfuhvf,"Mediated JOLs",1,124,2024-11-11T20:50:27+00:00,1.6843650341034,1,versionA_stim.csv,ReadVersion.csv,Read,Read1,BRIDGE,WATER,Study2,F,90,92,Study,User,-,,Study/JOL,"Study Phase2",1475,,,-1,-1,,,,1
M20351339_YR,i8n9xfuhvf,"Mediated JOLs",1,125,2024-11-11T20:50:31+00:00,4.0502359867096,1,versionA_stim.csv,ReadVersion.csv,Read,Read1,ARTERY,BRONZE,Study2,U,103,104,Study,User,-,,Study/JOL,"Study Phase2",3837,,,-1,-1,,,,1
M20351339_YR,i8n9xfuhvf,"Mediated JOLs",1,126,2024-11-11T20:50:34+00:00,2.5500431060791,1,versionA_stim.csv,ReadVersion.csv,Read,Read1,CHERRY,RED,Study2,F,80,86,Study,User,-,,Study/JOL,"Study Phase2",2337,,,-1,-1,,,,1
M20351339_YR,i8n9xfuhvf,"Mediated JOLs",1,127,2024-11-11T20:50:36+00:00,2.3694949150085,1,versionA_stim.csv,ReadVersion.csv,Read,Read1,MIRROR,CHILDREN,Study2,U,104,78,Study,User,-,,Study/JOL,"Study Phase2",2152,,,-1,-1,,,,1
M20351339_YR,i8n9xfuhvf,"Mediated JOLs",1,128,2024-11-11T20:50:38+00:00,2.1604690551758,1,versionA_stim.csv,ReadVersion.csv,Read,Read1,DEATH,BUSINESS,Study2,U,99,70,Study,User,-,,Study/JOL,"Study Phase2",1950,,,-1,-1,,,,1
M20351339_YR,i8n9xfuhvf,"Mediated JOLs",1,129,2024-11-11T20:50:40+00:00,1.4714479446411,1,versionA_stim.csv,ReadVersion.csv,Read,Read1,KING,VASE,Study2,U,91,89,Study,User,-,,Study/JOL,"Study Phase2",1258,,,-1,-1,,,,1
M20351339_YR,i8n9xfuhvf,"Mediated JOLs",1,130,2024-11-11T20:50:41+00:00,1.5305280685425,1,versionA_stim.csv,ReadVersion.csv,Read,Read1,HEAVY,BIRD,Study2,M,68,106,Study,User,-,,Study/JOL,"Study Phase2",1310,,,-1,-1,,,,1
M20351339_YR,i8n9xfuhvf,"Mediated JOLs",1,131,2024-11-11T20:50:44+00:00,2.0918810367584,1,versionA_stim.csv,ReadVersion.csv,Read,Read1,WINDOW,HANDLE,Study2,M,74,94,Study,User,-,,Study/JOL,"Study Phase2",1887,,,-1,-1,,,,1
M20351339_YR,i8n9xfuhvf,"Mediated JOLs",1,132,2024-11-11T20:50:46+00:00,2.3627898693085,1,versionA_stim.csv,ReadVersion.csv,Read,Read1,EYES,TASTE,Study2,M,65,66,Study,User,-,,Study/JOL,"Study Phase2",2147,,,-1,-1,,,,1
M20351339_YR,i8n9xfuhvf,"Mediated JOLs",1,133,2024-11-11T20:50:49+00:00,2.9281311035156,1,versionA_stim.csv,ReadVersion.csv,Read,Read1,VALLEY,TOP,Study2,M,73,79,Study,User,-,,Study/JOL,"Study Phase2",2716,,,-1,-1,,,,1
M20351339_YR,i8n9xfuhvf,"Mediated JOLs",1,134,2024-11-11T20:50:50+00:00,1.6865038871765,1,versionA_stim.csv,ReadVersion.csv,Read,Read1,RAZOR,ARM,Study2,M,75,80,Study,User,-,,Study/JOL,"Study Phase2",1469,,,-1,-1,,,,1
M20351339_YR,i8n9xfuhvf,"Mediated JOLs",1,135,2024-11-11T20:50:53+00:00,2.5461549758911,1,versionA_stim.csv,ReadVersion.csv,Read,Read1,PANTS,DOG,Study2,M,63,99,Study,User,-,,Study/JOL,"Study Phase2",2330,,,-1,-1,,,,1
M20351339_YR,i8n9xfuhvf,"Mediated JOLs",1,136,2024-11-11T20:50:55+00:00,1.7219951152802,1,versionA_stim.csv,ReadVersion.csv,Read,Read1,DIETARY,SACK,Study2,U,97,62,Study,User,-,,Study/JOL,"Study Phase2",1507,,,-1,-1,,,,1
M20351339_YR,i8n9xfuhvf,"Mediated JOLs",1,137,2024-11-11T20:50:56+00:00,1.4627449512482,1,versionA_stim.csv,ReadVersion.csv,Read,Read1,CHILL,COLD,Study2,F,87,85,Study,User,-,,Study/JOL,"Study Phase2",1250,,,-1,-1,,,,1
M20351339_YR,i8n9xfuhvf,"Mediated JOLs",1,138,2024-11-11T20:50:58+00:00,1.4531900882721,1,versionA_stim.csv,ReadVersion.csv,Read,Read1,SICK,HIDE,Study2,U,100,76,Study,User,-,,Study/JOL,"Study Phase2",1186,,,-1,-1,,,,1
M20351339_YR,i8n9xfuhvf,"Mediated JOLs",1,139,2024-11-11T20:51:00+00:00,2.3483078479767,1,versionA_stim.csv,ReadVersion.csv,Read,Read1,LEAGUE,BASEBALL,Study2,F,84,101,Study,User,-,,Study/JOL,"Study Phase2",2126,,,-1,-1,,,,1
M20351339_YR,i8n9xfuhvf,"Mediated JOLs",1,140,2024-11-11T20:51:01+00:00,1.1181001663208,1,versionA_stim.csv,ReadVersion.csv,Read,Read1,HERD,COW,Study2,F,88,87,Study,User,-,,Study/JOL,"Study Phase2",814,,,-1,-1,,,,1
M20351339_YR,i8n9xfuhvf,"Mediated JOLs",1,141,2024-11-11T20:51:03+00:00,1.7572507858276,1,versionA_stim.csv,ReadVersion.csv,Read,Read1,FEUD,FIGHT,Study2,F,86,105,Study,User,-,,Study/JOL,"Study Phase2",1549,,,-1,-1,,,,1
M20351339_YR,i8n9xfuhvf,"Mediated JOLs",1,142,2024-11-11T20:51:04+00:00,1.5519361495972,1,versionA_stim.csv,ReadVersion.csv,Read,Read1,OVEN,WEAVE,Study2,M,71,73,Study,User,-,,Study/JOL,"Study Phase2",1345,,,-1,-1,,,,1
M20351339_YR,i8n9xfuhvf,"Mediated JOLs",1,143,2024-11-11T20:51:06+00:00,1.2957398891449,1,versionA_stim.csv,ReadVersion.csv,Read,Read1,TRAP,MAN,Study2,M,70,63,Study,User,-,,Study/JOL,"Study Phase2",1096,,,-1,-1,,,,1
M20351339_YR,i8n9xfuhvf,"Mediated JOLs",1,144,2024-11-11T20:51:08+00:00,1.8195559978485,1,versionA_stim.csv,ReadVersion.csv,Read,Read1,LEASE,TOIL,Study2,U,101,82,Study,User,-,,Study/JOL,"Study Phase2",1613,,,-1,-1,,,,1
M20351339_YR,i8n9xfuhvf,"Mediated JOLs",1,145,2024-11-11T20:51:09+00:00,1.6689569950104,1,versionA_stim.csv,ReadVersion.csv,Read,Read1,GRILL,LEG,Study2,M,72,71,Study,User,-,,Study/JOL,"Study Phase2",1458,,,-1,-1,,,,1
M20351339_YR,i8n9xfuhvf,"Mediated JOLs",1,146,2024-11-11T20:51:11+00:00,2.0157260894775,1,versionA_stim.csv,ReadVersion.csv,Read,Read1,WASP,BUG,Study2,F,89,69,Study,User,-,,Study/JOL,"Study Phase2",1802,,,-1,-1,,,,1
M20351339_YR,i8n9xfuhvf,"Mediated JOLs",1,147,2024-11-11T20:51:13+00:00,1.4240069389343,1,versionA_stim.csv,ReadVersion.csv,Read,Read1,NURSE,COURT,Study2,M,66,96,Study,User,-,,Study/JOL,"Study Phase2",1206,,,-1,-1,,,,1
M20351339_YR,i8n9xfuhvf,"Mediated JOLs",1,148,2024-11-11T20:51:14+00:00,1.125146150589,1,versionA_stim.csv,ReadVersion.csv,Read,Read1,ART,WOLF,Study2,U,93,67,Study,User,-,,Study/JOL,"Study Phase2",919,,,-1,-1,,,,1
M20351339_YR,i8n9xfuhvf,"Mediated JOLs",1,149,2024-11-11T20:51:15+00:00,1.6369988918304,1,versionA_stim.csv,ReadVersion.csv,Read,Read1,PUSH,CLUTTER,Study2,U,96,68,Study,User,-,,Study/JOL,"Study Phase2",1428,,,-1,-1,,,,1
M20351339_YR,i8n9xfuhvf,"Mediated JOLs",1,150,2024-11-11T20:51:16+00:00,1.0655689239502,1,versionA_stim.csv,ReadVersion.csv,Read,Read1,STRONG,ACCIDENT,Study2,U,94,100,Study,User,-,,Study/JOL,"Study Phase2",858,,,-1,-1,,,,1
M20351339_YR,i8n9xfuhvf,"Mediated JOLs",1,151,2024-11-11T20:51:21+00:00,4.3204531669617,1,versionA_stim.csv,ReadVersion.csv,Read,Read1,SCHOOL,SIGN,Study2,M,62,77,Study,User,-,,Study/JOL,"Study Phase2",4105,,,-1,-1,,,,1
M20351339_YR,i8n9xfuhvf,"Mediated JOLs",1,152,2024-11-11T20:51:22+00:00,1.2240328788757,1,versionA_stim.csv,ReadVersion.csv,Read,Read1,SUMMER,WHITE,Study2,M,61,88,Study,User,-,,Study/JOL,"Study Phase2",1020,,,-1,-1,,,,1
M20351339_YR,i8n9xfuhvf,"Mediated JOLs",1,153,2024-11-11T20:51:23+00:00,0.98609805107117,1,versionA_stim.csv,ReadVersion.csv,Read,Read1,CASH,LEG,Study2,U,105,64,Study,User,-,,Study/JOL,"Study Phase2",781,,,-1,-1,,,,1
M20351339_YR,i8n9xfuhvf,"Mediated JOLs",1,154,2024-11-11T20:51:24+00:00,1.2129509449005,1,versionA_stim.csv,ReadVersion.csv,Read,Read1,CACTUS,PLANT,Study2,F,76,95,Study,User,-,,Study/JOL,"Study Phase2",1007,,,-1,-1,,,,1
M20351339_YR,i8n9xfuhvf,"Mediated JOLs",1,155,2024-11-11T20:51:25+00:00,1.1591219902039,1,versionA_stim.csv,ReadVersion.csv,Read,Read1,BLAZE,FIRE,Study2,F,81,97,Study,User,-,,Study/JOL,"Study Phase2",864,,,-1,-1,,,,1
M20351339_YR,i8n9xfuhvf,"Mediated JOLs",1,156,2024-11-11T20:51:27+00:00,1.427971124649,1,versionA_stim.csv,ReadVersion.csv,Read,Read1,HORNET,STING,Study2,F,85,98,Study,User,-,,Study/JOL,"Study Phase2",1221,,,-1,-1,,,,1
M20351339_YR,i8n9xfuhvf,"Mediated JOLs",1,157,2024-11-11T20:51:28+00:00,1.5021858215332,1,versionA_stim.csv,ReadVersion.csv,Read,Read1,INCENSE,SMELL,Study2,F,83,102,Study,User,-,,Study/JOL,"Study Phase2",1292,,,-1,-1,,,,1
M20351339_YR,i8n9xfuhvf,"Mediated JOLs",1,158,2024-11-11T20:51:30+00:00,1.2775511741638,1,versionA_stim.csv,ReadVersion.csv,Read,Read1,MONTH,YEAR,BUFFER3,Buffer,57,59,Study,User,-,,Study/JOL,BUFFER2,1074,,,-1,-1,,,,1
M20351339_YR,i8n9xfuhvf,"Mediated JOLs",1,159,2024-11-11T20:51:31+00:00,1.5448310375214,1,versionA_stim.csv,ReadVersion.csv,Read,Read1,MALT,CHOCOLATE,BUFFER2,Buffer,53,56,Study,User,-,,Study/JOL,BUFFER2,1277,,,-1,-1,,,,1
M20351339_YR,i8n9xfuhvf,"Mediated JOLs",1,160,2024-11-11T20:51:33+00:00,1.7463908195496,1,versionA_stim.csv,ReadVersion.csv,Read,Read1,DAYS,WEAKS,BUFFER3,Buffer,56,58,Study,User,-,,Study/JOL,BUFFER2,1526,,,-1,-1,,,,1
M20351339_YR,i8n9xfuhvf,"Mediated JOLs",1,161,2024-11-11T20:51:36+00:00,2.7342691421509,1,versionA_stim.csv,ReadVersion.csv,Read,Read1,CARROT,POTATO,BUFFER4,Buffer,106,110,Study,User,-,,Study/JOL,BUFFER2,2518,,,-1,-1,,,,1
M20351339_YR,i8n9xfuhvf,"Mediated JOLs",1,162,2024-11-11T20:51:37+00:00,1.0005538463593,1,versionA_stim.csv,ReadVersion.csv,Read,Read1,SPRING,MARCH,BUFFER3,Buffer,59,61,Study,User,-,,Study/JOL,BUFFER2,783,,,-1,-1,,,,1
M20351339_YR,i8n9xfuhvf,"Mediated JOLs",1,163,2024-11-11T20:51:38+00:00,1.4683270454407,1,versionA_stim.csv,ReadVersion.csv,Read,Read1,,,,,,0,Instruct,User,-,"You have completed this section. Please press Enter.",Filler_Instruction,Instruct2,1255,,,-1,-1,,,,1
M20351339_YR,i8n9xfuhvf,"Mediated JOLs",1,164,2024-11-11T20:53:38+00:00,120.24673008919,1,versionA_stim.csv,ReadVersion.csv,Read,Read1,,,,,,0,FreeRecall,120,120,"Please list the 50 US states in alphabetical order. The task will automatically advance to the next screen after two minutes.",,Filler1,120001,"ALABAMA ALASKA ARIZONA ARKANSAS CALIFORNIA COLORADO CONNECTICUT DELAWARE FLORIDA GEORGIA HAWAII IDAHO ILLINOIS INDIANA IOWA KANSAS KENTUCKY LOISIANA MAINE MARYLAND MASSACHUSETTS MICHIGAN MINNESOTA MISSIS ",0,2383,119988,0,0,,1
M20351339_YR,i8n9xfuhvf,"Mediated JOLs",1,165,2024-11-11T20:53:52+00:00,14.062376976013,1,versionA_stim.csv,ReadVersion.csv,Read,Read1,,,,,,0,Instruct,-,10,"You will now be presented with the first word from each of the previously studied item pairs. Please type the missing word. If you do not know the word, you may guess or press Enter to skip forward to the next pair.",,Instruct3,13606,,,-1,-1,,,,1
M20351339_YR,i8n9xfuhvf,"Mediated JOLs",1,166,2024-11-11T20:53:55+00:00,2.5730669498444,1,versionA_stim.csv,ReadVersion.csv,Read,Read1,PUSH,CLUTTER,Study2,U,96,68,Test,User,-,,Recall,Recall2,2272,,0,-1,-1,0,0,,1
M20351339_YR,i8n9xfuhvf,"Mediated JOLs",1,167,2024-11-11T20:53:59+00:00,3.6591610908508,1,versionA_stim.csv,ReadVersion.csv,Read,Read1,HAPPY,CAR,Study2,U,92,103,Test,User,-,,Recall,Recall2,3423,SAD,33.333333333333,2989,3209,0,0,,1
M20351339_YR,i8n9xfuhvf,"Mediated JOLs",1,168,2024-11-11T20:54:01+00:00,2.625109910965,1,versionA_stim.csv,ReadVersion.csv,Read,Read1,CASH,LEG,Study2,U,105,64,Test,User,-,,Recall,Recall2,2370,BACK,0,1852,2135,0,0,,1
M20351339_YR,i8n9xfuhvf,"Mediated JOLs",1,169,2024-11-11T20:54:04+00:00,2.6240899562836,1,versionA_stim.csv,ReadVersion.csv,Read,Read1,LEASE,TOIL,Study2,U,101,82,Test,User,-,,Recall,Recall2,2372,,0,-1,-1,0,0,,1
M20351339_YR,i8n9xfuhvf,"Mediated JOLs",1,170,2024-11-11T20:54:06+00:00,2.1441180706024,1,versionA_stim.csv,ReadVersion.csv,Read,Read1,BOTH,OUNCE,Study2,U,102,72,Test,User,-,,Recall,Recall2,1919,,0,-1,-1,0,0,,1
M20351339_YR,i8n9xfuhvf,"Mediated JOLs",1,171,2024-11-11T20:54:08+00:00,1.8738949298859,1,versionA_stim.csv,ReadVersion.csv,Read,Read1,FEUD,FIGHT,Study2,F,86,105,Test,User,-,,Recall,Recall2,1659,FIGHT,100,968,1423,1,1,,1
M20351339_YR,i8n9xfuhvf,"Mediated JOLs",1,172,2024-11-11T20:54:10+00:00,1.8534879684448,1,versionA_stim.csv,ReadVersion.csv,Read,Read1,HORNET,STING,Study2,F,85,98,Test,User,-,,Recall,Recall2,1630,STING,100,931,1414,1,1,,1
M20351339_YR,i8n9xfuhvf,"Mediated JOLs",1,173,2024-11-11T20:54:14+00:00,3.8336260318756,1,versionA_stim.csv,ReadVersion.csv,Read,Read1,TRAP,MAN,Study2,M,70,63,Test,User,-,,Recall,Recall2,3615,STAY,28.571428571429,2703,3386,0,0,,1
M20351339_YR,i8n9xfuhvf,"Mediated JOLs",1,174,2024-11-11T20:54:16+00:00,1.9848670959473,1,versionA_stim.csv,ReadVersion.csv,Read,Read1,NURSE,COURT,Study2,M,66,96,Test,User,-,,Recall,Recall2,1753,COURT,100,1065,1585,1,1,,1
M20351339_YR,i8n9xfuhvf,"Mediated JOLs",1,175,2024-11-11T20:54:20+00:00,4.4561040401459,1,versionA_stim.csv,ReadVersion.csv,Read,Read1,SICK,HIDE,Study2,U,100,76,Test,User,-,,Recall,Recall2,4232,COUGH,22.222222222222,2722,3958,0,0,,1
M20351339_YR,i8n9xfuhvf,"Mediated JOLs",1,176,2024-11-11T20:54:23+00:00,3.000540971756,1,versionA_stim.csv,ReadVersion.csv,Read,Read1,LEAGUE,BASEBALL,Study2,F,84,101,Test,User,-,,Recall,Recall2,2782,,0,-1,-1,0,0,,1
M20351339_YR,i8n9xfuhvf,"Mediated JOLs",1,177,2024-11-11T20:54:26+00:00,2.924733877182,1,versionA_stim.csv,ReadVersion.csv,Read,Read1,DEATH,BUSINESS,Study2,U,99,70,Test,User,-,,Recall,Recall2,2694,BUSINESS,100,1075,2538,1,1,,1
M20351339_YR,i8n9xfuhvf,"Mediated JOLs",1,178,2024-11-11T20:54:29+00:00,3.349179983139,1,versionA_stim.csv,ReadVersion.csv,Read,Read1,PANTS,DOG,Study2,M,63,99,Test,User,-,,Recall,Recall2,3125,SHIRT,0,2423,2969,0,0,,1
M20351339_YR,i8n9xfuhvf,"Mediated JOLs",1,179,2024-11-11T20:54:32+00:00,2.6195261478424,1,versionA_stim.csv,ReadVersion.csv,Read,Read1,HERD,COW,Study2,F,88,87,Test,User,-,,Recall,Recall2,2398,BIRD,0,1841,2302,0,0,,1
M20351339_YR,i8n9xfuhvf,"Mediated JOLs",1,180,2024-11-11T20:54:34+00:00,2.0555379390717,1,versionA_stim.csv,ReadVersion.csv,Read,Read1,DOCUMENT,PAPER,Study2,F,82,90,Test,User,-,,Recall,Recall2,1828,,0,-1,-1,0,0,,1
M20351339_YR,i8n9xfuhvf,"Mediated JOLs",1,181,2024-11-11T20:54:36+00:00,2.399808883667,1,versionA_stim.csv,ReadVersion.csv,Read,Read1,CHISEL,HAMMER,Study2,F,78,93,Test,User,-,,Recall,Recall2,2186,HAMMER,100,1467,2025,1,1,,1
M20351339_YR,i8n9xfuhvf,"Mediated JOLs",1,182,2024-11-11T20:54:40+00:00,4.0831410884857,1,versionA_stim.csv,ReadVersion.csv,Read,Read1,EYES,TASTE,Study2,M,65,66,Test,User,-,,Recall,Recall2,3875,SIGHT,40,2876,3305,0,0,,1
M20351339_YR,i8n9xfuhvf,"Mediated JOLs",1,183,2024-11-11T20:54:44+00:00,3.4579651355743,1,versionA_stim.csv,ReadVersion.csv,Read,Read1,RAKE,PLANT,Study2,M,69,83,Test,User,-,,Recall,Recall2,3238,PLANT,100,2334,3022,1,1,,1
M20351339_YR,i8n9xfuhvf,"Mediated JOLs",1,184,2024-11-11T20:54:47+00:00,3.5407149791718,1,versionA_stim.csv,ReadVersion.csv,Read,Read1,SUGAR,RIDDLE,Study2,U,95,74,Test,User,-,,Recall,Recall2,3322,WATER,18.181818181818,1647,3069,0,0,,1
M20351339_YR,i8n9xfuhvf,"Mediated JOLs",1,185,2024-11-11T20:54:50+00:00,3.0009088516235,1,versionA_stim.csv,ReadVersion.csv,Read,Read1,MIRROR,CHILDREN,Study2,U,104,78,Test,User,-,,Recall,Recall2,2730,,0,-1,-1,0,0,,1
M20351339_YR,i8n9xfuhvf,"Mediated JOLs",1,186,2024-11-11T20:54:52+00:00,1.9265720844269,1,versionA_stim.csv,ReadVersion.csv,Read,Read1,GRILL,LEG,Study2,M,72,71,Test,User,-,,Recall,Recall2,1710,LEG,100,1032,1398,1,1,,1
M20351339_YR,i8n9xfuhvf,"Mediated JOLs",1,187,2024-11-11T20:54:56+00:00,3.5937049388885,1,versionA_stim.csv,ReadVersion.csv,Read,Read1,SUMMER,WHITE,Study2,M,61,88,Test,User,-,,Recall,Recall2,3372,WEATHER,33.333333333333,2065,3091,0,0,,1
M20351339_YR,i8n9xfuhvf,"Mediated JOLs",1,188,2024-11-11T20:54:58+00:00,1.9259550571442,1,versionA_stim.csv,ReadVersion.csv,Read,Read1,WASP,BUG,Study2,F,89,69,Test,User,-,,Recall,Recall2,1706,STING,25,924,1482,0,0,,1
M20351339_YR,i8n9xfuhvf,"Mediated JOLs",1,189,2024-11-11T20:55:05+00:00,6.9998829364777,1,versionA_stim.csv,ReadVersion.csv,Read,Read1,OVEN,WEAVE,Study2,M,71,73,Test,User,-,,Recall,Recall2,6775,HOT,0,3548,6597,0,0,,1
M20351339_YR,i8n9xfuhvf,"Mediated JOLs",1,190,2024-11-11T20:55:08+00:00,2.8582949638367,1,versionA_stim.csv,ReadVersion.csv,Read,Read1,INCENSE,SMELL,Study2,F,83,102,Test,User,-,,Recall,Recall2,2593,SMELL,100,1715,2357,1,1,,1
M20351339_YR,i8n9xfuhvf,"Mediated JOLs",1,191,2024-11-11T20:55:09+00:00,1.5727360248566,1,versionA_stim.csv,ReadVersion.csv,Read,Read1,CHERRY,RED,Study2,F,80,86,Test,User,-,,Recall,Recall2,1269,RED,100,747,1025,1,1,,1
M20351339_YR,i8n9xfuhvf,"Mediated JOLs",1,192,2024-11-11T20:55:12+00:00,3.0172610282898,1,versionA_stim.csv,ReadVersion.csv,Read,Read1,BENCH,HORN,Study2,U,98,91,Test,User,-,,Recall,Recall2,2805,SAND,25,1730,2152,0,0,,1
M20351339_YR,i8n9xfuhvf,"Mediated JOLs",1,193,2024-11-11T20:55:15+00:00,2.8560371398926,1,versionA_stim.csv,ReadVersion.csv,Read,Read1,VALLEY,TOP,Study2,M,73,79,Test,User,-,,Recall,Recall2,2638,HIGHT,25,1680,2152,0,0,,1
M20351339_YR,i8n9xfuhvf,"Mediated JOLs",1,194,2024-11-11T20:55:19+00:00,4.0874648094177,1,versionA_stim.csv,ReadVersion.csv,Read,Read1,ATTIRE,CLOTHES,Study2,F,79,65,Test,User,-,,Recall,Recall2,3710,CLOTH,83.333333333333,2187,2915,0,1,,1
M20351339_YR,i8n9xfuhvf,"Mediated JOLs",1,195,2024-11-11T20:55:22+00:00,2.4751970767975,1,versionA_stim.csv,ReadVersion.csv,Read,Read1,CHILL,COLD,Study2,F,87,85,Test,User,-,,Recall,Recall2,2243,BILL,25,1397,2017,0,0,,1
M20351339_YR,i8n9xfuhvf,"Mediated JOLs",1,196,2024-11-11T20:55:25+00:00,3.3775200843811,1,versionA_stim.csv,ReadVersion.csv,Read,Read1,DIETARY,SACK,Study2,U,97,62,Test,User,-,,Recall,Recall2,3161,PLANT,22.222222222222,1374,2836,0,0,,1
M20351339_YR,i8n9xfuhvf,"Mediated JOLs",1,197,2024-11-11T20:55:27+00:00,1.9533138275146,1,versionA_stim.csv,ReadVersion.csv,Read,Read1,BRIDGE,WATER,Study2,F,90,92,Test,User,-,,Recall,Recall2,1728,WATER,100,950,1517,1,1,,1
M20351339_YR,i8n9xfuhvf,"Mediated JOLs",1,198,2024-11-11T20:55:29+00:00,1.6839530467987,1,versionA_stim.csv,ReadVersion.csv,Read,Read1,STRONG,ACCIDENT,Study2,U,94,100,Test,User,-,,Recall,Recall2,1457,ARM,18.181818181818,943,1221,0,0,,1
M20351339_YR,i8n9xfuhvf,"Mediated JOLs",1,199,2024-11-11T20:55:31+00:00,2.0695040225983,1,versionA_stim.csv,ReadVersion.csv,Read,Read1,CACTUS,PLANT,Study2,F,76,95,Test,User,-,,Recall,Recall2,1847,PLANT,100,944,1557,1,1,,1
M20351339_YR,i8n9xfuhvf,"Mediated JOLs",1,200,2024-11-11T20:55:36+00:00,4.6568059921265,1,versionA_stim.csv,ReadVersion.csv,Read,Read1,CHOP,CUT,Study2,F,77,81,Test,User,-,,Recall,Recall2,4434,ONION,0,2868,4164,0,0,,1
M20351339_YR,i8n9xfuhvf,"Mediated JOLs",1,201,2024-11-11T20:55:37+00:00,1.7563679218292,1,versionA_stim.csv,ReadVersion.csv,Read,Read1,RAZOR,ARM,Study2,M,75,80,Test,User,-,,Recall,Recall2,1526,ARM,100,983,1295,1,1,,1
M20351339_YR,i8n9xfuhvf,"Mediated JOLs",1,202,2024-11-11T20:55:46+00:00,8.3053522109985,1,versionA_stim.csv,ReadVersion.csv,Read,Read1,REALITY,WATER,Study2,M,64,75,Test,User,-,,Recall,Recall2,8083,LIFE,22.222222222222,7224,7553,0,0,,1
M20351339_YR,i8n9xfuhvf,"Mediated JOLs",1,203,2024-11-11T20:55:49+00:00,3.30344581604,1,versionA_stim.csv,ReadVersion.csv,Read,Read1,WINDOW,HANDLE,Study2,M,74,94,Test,User,-,,Recall,Recall2,3079,SIGHT,18.181818181818,2137,2778,0,0,,1
M20351339_YR,i8n9xfuhvf,"Mediated JOLs",1,204,2024-11-11T20:55:51+00:00,2.4922749996185,1,versionA_stim.csv,ReadVersion.csv,Read,Read1,BLAZE,FIRE,Study2,F,81,97,Test,User,-,,Recall,Recall2,2268,FIRE,100,930,1269,1,1,,1
M20351339_YR,i8n9xfuhvf,"Mediated JOLs",1,205,2024-11-11T20:55:55+00:00,4.1132071018219,1,versionA_stim.csv,ReadVersion.csv,Read,Read1,SCHOOL,SIGN,Study2,M,62,77,Test,User,-,,Recall,Recall2,3890,JAIL,25,3182,3620,0,0,,1
M20351339_YR,i8n9xfuhvf,"Mediated JOLs",1,206,2024-11-11T20:56:00+00:00,4.0115909576416,1,versionA_stim.csv,ReadVersion.csv,Read,Read1,ARTERY,BRONZE,Study2,U,103,104,Test,User,-,,Recall,Recall2,3780,BRONZE,100,2268,3300,1,1,,1
M20351339_YR,i8n9xfuhvf,"Mediated JOLs",1,207,2024-11-11T20:56:02+00:00,2.1547069549561,1,versionA_stim.csv,ReadVersion.csv,Read,Read1,HEAVY,BIRD,Study2,M,68,106,Test,User,-,,Recall,Recall2,1931,DUTY,25,1224,1632,0,0,,1
M20351339_YR,i8n9xfuhvf,"Mediated JOLs",1,208,2024-11-11T20:56:04+00:00,2.7058620452881,1,versionA_stim.csv,ReadVersion.csv,Read,Read1,ART,WOLF,Study2,U,93,67,Test,User,-,,Recall,Recall2,2478,,0,-1,-1,0,0,,1
M20351339_YR,i8n9xfuhvf,"Mediated JOLs",1,209,2024-11-11T20:56:08+00:00,3.6577210426331,1,versionA_stim.csv,ReadVersion.csv,Read,Read1,SOAP,THIRST,Study2,M,67,84,Test,User,-,,Recall,Recall2,3443,CLEAN,0,2072,2500,0,0,,1
M20351339_YR,i8n9xfuhvf,"Mediated JOLs",1,210,2024-11-11T20:56:12+00:00,3.9244179725647,1,versionA_stim.csv,ReadVersion.csv,Read,Read1,KING,VASE,Study2,U,91,89,Test,User,-,,Recall,Recall2,3707,CHARLES,36.363636363636,2568,3467,0,0,,1
M20351339_YR,i8n9xfuhvf,"Mediated JOLs",1,211,2024-11-11T20:56:13+00:00,1.3454511165619,1,versionA_stim.csv,ReadVersion.csv,Read,Read1,,,,,,0,Instruct,User,-,"You have completed this section. Please press Enter.",,Instruct7,1121,,,-1,-1,,,,1
M20351339_YR,i8n9xfuhvf,"Mediated JOLs",1,212,2024-11-11T20:56:17+00:00,3.3359358310699,1,versionA_stim.csv,ReadVersion.csv,Read,Read1,,,,,,0,Instruct,User,-,"The following screen will ask you a few questions abour your experience today. You must complete these questions to receive credit.",,Instruct8,3034,,,-1,-1,,,,1
