Username,ID,ExperimentName,Session,Trial,Date,TimeDif,"Condition Number","Stimuli File","Order File","Condition Description","Condition Notes",Stimuli*Cue,Stimuli*Answer,Stimuli*Shuffle,"Stimuli*Stimuli Notes",Stimuli*Value,Procedure*Item,"Procedure*Trial Type","Procedure*Max Time","Procedure*Min Time",Procedure*Text,"Procedure*Procedure Notes",Procedure*Shuffle,Response*RT,Response*Response,Response*Accuracy,Response*RTfirst,Response*RTlast,Response*strictAcc,Response*lenientAcc,Response*focus,Response*Focus
M20335622WDl,b2warws0zw,"Mediated JOLs",1,1,2024-09-09T21:30:14+00:00,13.09886097908,3,versionB_stim.csv,ReadVersion.csv,Read,Read2,,,,,,0,Instruct,-,5,"In this section, you will be presented with a series of word pairs. Please study each word pair! Your memory will be tested!",Initial_Instruct,Instruct1,13022,,,-1,-1,,,,0.47
M20335622WDl,b2warws0zw,"Mediated JOLs",1,2,2024-09-09T21:30:15+00:00,1.2924430370331,3,versionB_stim.csv,ReadVersion.csv,Read,Read2,,,,,,0,Instruct,User,-,"You will now begin. Press Enter when you are ready to begin.",,Instruct16,1183,,,-1,-1,,,,1
M20335622WDl,b2warws0zw,"Mediated JOLs",1,3,2024-09-09T21:30:17+00:00,1.6195809841156,3,versionB_stim.csv,ReadVersion.csv,Read,Read2,DAYS,WEAKS,BUFFER3,Buffer,1,2,Study,User,-,,Study/JOL,BUFFER,1519,,,-1,-1,,,,1
M20335622WDl,b2warws0zw,"Mediated JOLs",1,4,2024-09-09T21:30:20+00:00,3.1870231628418,3,versionB_stim.csv,ReadVersion.csv,Read,Read2,MONTH,YEAR,BUFFER3,Buffer,2,4,Study,User,-,,Study/JOL,BUFFER,3084,,,-1,-1,,,,1
M20335622WDl,b2warws0zw,"Mediated JOLs",1,5,2024-09-09T21:30:21+00:00,0.79379892349243,3,versionB_stim.csv,ReadVersion.csv,Read,Read2,TOOL,SHED,BUFFER3,Buffer,3,5,Study,User,-,,Study/JOL,BUFFER,693,,,-1,-1,,,,1
M20335622WDl,b2warws0zw,"Mediated JOLs",1,6,2024-09-09T21:30:22+00:00,1.0254080295563,3,versionB_stim.csv,ReadVersion.csv,Read,Read2,SPRING,MARCH,BUFFER3,Buffer,4,3,Study,User,-,,Study/JOL,BUFFER,926,,,-1,-1,,,,1
M20335622WDl,b2warws0zw,"Mediated JOLs",1,7,2024-09-09T21:30:23+00:00,0.97782802581787,3,versionB_stim.csv,ReadVersion.csv,Read,Read2,OCTOBER,SPOOKY,BUFFER3,Buffer,5,6,Study,User,-,,Study/JOL,BUFFER,872,,,-1,-1,,,,1
M20335622WDl,b2warws0zw,"Mediated JOLs",1,8,2024-09-09T21:30:25+00:00,2.2632520198822,3,versionB_stim.csv,ReadVersion.csv,Read,Read2,CASH,LEG,Study2,U,50,8,Study,User,-,,Study/JOL,"Study Phase",2162,,,-1,-1,,,,1
M20335622WDl,b2warws0zw,"Mediated JOLs",1,9,2024-09-09T21:30:27+00:00,2.0037138462067,3,versionB_stim.csv,ReadVersion.csv,Read,Read2,KING,VASE,Study2,U,36,18,Study,User,-,,Study/JOL,"Study Phase",1906,,,-1,-1,,,,1
M20335622WDl,b2warws0zw,"Mediated JOLs",1,10,2024-09-09T21:30:29+00:00,1.6769771575928,3,versionB_stim.csv,ReadVersion.csv,Read,Read2,ARTERY,BRONZE,Study2,U,48,32,Study,User,-,,Study/JOL,"Study Phase",1578,,,-1,-1,,,,1
M20335622WDl,b2warws0zw,"Mediated JOLs",1,11,2024-09-09T21:30:31+00:00,1.9640629291534,3,versionB_stim.csv,ReadVersion.csv,Read,Read2,LEAGUE,BASEBALL,Study2,F,29,28,Study,User,-,,Study/JOL,"Study Phase",1859,,,-1,-1,,,,1
M20335622WDl,b2warws0zw,"Mediated JOLs",1,12,2024-09-09T21:30:32+00:00,1.0080599784851,3,versionB_stim.csv,ReadVersion.csv,Read,Read2,CHOP,CUT,Study2,F,22,46,Study,User,-,,Study/JOL,"Study Phase",906,,,-1,-1,,,,1
M20335622WDl,b2warws0zw,"Mediated JOLs",1,13,2024-09-09T21:30:33+00:00,0.96539497375488,3,versionB_stim.csv,ReadVersion.csv,Read,Read2,BRIDGE,WATER,Study2,F,35,45,Study,User,-,,Study/JOL,"Study Phase",867,,,-1,-1,,,,1
M20335622WDl,b2warws0zw,"Mediated JOLs",1,14,2024-09-09T21:30:35+00:00,2.061115026474,3,versionB_stim.csv,ReadVersion.csv,Read,Read2,SICK,HIDE,Study2,U,45,43,Study,User,-,,Study/JOL,"Study Phase",1958,,,-1,-1,,,,1
M20335622WDl,b2warws0zw,"Mediated JOLs",1,15,2024-09-09T21:30:38+00:00,3.6648371219635,3,versionB_stim.csv,ReadVersion.csv,Read,Read2,BOTH,OUNCE,Study2,U,47,17,Study,User,-,,Study/JOL,"Study Phase",3562,,,-1,-1,,,,1
M20335622WDl,b2warws0zw,"Mediated JOLs",1,16,2024-09-09T21:30:40+00:00,1.7625408172607,3,versionB_stim.csv,ReadVersion.csv,Read,Read2,CHILL,COLD,Study2,F,32,16,Study,User,-,,Study/JOL,"Study Phase",1657,,,-1,-1,,,,1
M20335622WDl,b2warws0zw,"Mediated JOLs",1,17,2024-09-09T21:30:41+00:00,1.3064670562744,3,versionB_stim.csv,ReadVersion.csv,Read,Read2,WINDOW,HANDLE,Study2,M,19,35,Study,User,-,,Study/JOL,"Study Phase",1203,,,-1,-1,,,,1
M20335622WDl,b2warws0zw,"Mediated JOLs",1,18,2024-09-09T21:30:43+00:00,1.9486110210419,3,versionB_stim.csv,ReadVersion.csv,Read,Read2,SUGAR,RIDDLE,Study2,U,40,40,Study,User,-,,Study/JOL,"Study Phase",1845,,,-1,-1,,,,1
M20335622WDl,b2warws0zw,"Mediated JOLs",1,19,2024-09-09T21:30:44+00:00,1.1046469211578,3,versionB_stim.csv,ReadVersion.csv,Read,Read2,SOAP,THIRST,Study2,M,12,15,Study,User,-,,Study/JOL,"Study Phase",1004,,,-1,-1,,,,1
M20335622WDl,b2warws0zw,"Mediated JOLs",1,20,2024-09-09T21:30:46+00:00,1.5840301513672,3,versionB_stim.csv,ReadVersion.csv,Read,Read2,EYES,TASTE,Study2,M,10,51,Study,User,-,,Study/JOL,"Study Phase",1482,,,-1,-1,,,,1
M20335622WDl,b2warws0zw,"Mediated JOLs",1,21,2024-09-09T21:30:48+00:00,2.3178629875183,3,versionB_stim.csv,ReadVersion.csv,Read,Read2,HORNET,STING,Study2,F,30,34,Study,User,-,,Study/JOL,"Study Phase",2215,,,-1,-1,,,,1
M20335622WDl,b2warws0zw,"Mediated JOLs",1,22,2024-09-09T21:30:49+00:00,1.0806310176849,3,versionB_stim.csv,ReadVersion.csv,Read,Read2,NURSE,COURT,Study2,M,11,41,Study,User,-,,Study/JOL,"Study Phase",977,,,-1,-1,,,,1
M20335622WDl,b2warws0zw,"Mediated JOLs",1,23,2024-09-09T21:30:51+00:00,1.2832858562469,3,versionB_stim.csv,ReadVersion.csv,Read,Read2,DOCUMENT,PAPER,Study2,F,27,12,Study,User,-,,Study/JOL,"Study Phase",1185,,,-1,-1,,,,1
M20335622WDl,b2warws0zw,"Mediated JOLs",1,24,2024-09-09T21:30:52+00:00,1.3809061050415,3,versionB_stim.csv,ReadVersion.csv,Read,Read2,REALITY,WATER,Study2,M,9,19,Study,User,-,,Study/JOL,"Study Phase",1277,,,-1,-1,,,,1
M20335622WDl,b2warws0zw,"Mediated JOLs",1,25,2024-09-09T21:30:54+00:00,2.124892950058,3,versionB_stim.csv,ReadVersion.csv,Read,Read2,PUSH,CLUTTER,Study2,U,41,27,Study,User,-,,Study/JOL,"Study Phase",2023,,,-1,-1,,,,1
M20335622WDl,b2warws0zw,"Mediated JOLs",1,26,2024-09-09T21:30:57+00:00,2.2786049842834,3,versionB_stim.csv,ReadVersion.csv,Read,Read2,MIRROR,CHILDREN,Study2,U,49,25,Study,User,-,,Study/JOL,"Study Phase",2178,,,-1,-1,,,,1
M20335622WDl,b2warws0zw,"Mediated JOLs",1,27,2024-09-09T21:30:58+00:00,1.6016709804535,3,versionB_stim.csv,ReadVersion.csv,Read,Read2,STRONG,ACCIDENT,Study2,U,39,39,Study,User,-,,Study/JOL,"Study Phase",1500,,,-1,-1,,,,1
M20335622WDl,b2warws0zw,"Mediated JOLs",1,28,2024-09-09T21:31:00+00:00,1.7626070976257,3,versionB_stim.csv,ReadVersion.csv,Read,Read2,GRILL,LEG,Study2,M,17,7,Study,User,-,,Study/JOL,"Study Phase",1661,,,-1,-1,,,,1
M20335622WDl,b2warws0zw,"Mediated JOLs",1,29,2024-09-09T21:31:03+00:00,2.6592168807983,3,versionB_stim.csv,ReadVersion.csv,Read,Read2,RAZOR,ARM,Study2,M,20,48,Study,User,-,,Study/JOL,"Study Phase",2556,,,-1,-1,,,,1
M20335622WDl,b2warws0zw,"Mediated JOLs",1,30,2024-09-09T21:31:04+00:00,1.373232126236,3,versionB_stim.csv,ReadVersion.csv,Read,Read2,ART,WOLF,Study2,U,38,20,Study,User,-,,Study/JOL,"Study Phase",1270,,,-1,-1,,,,1
M20335622WDl,b2warws0zw,"Mediated JOLs",1,31,2024-09-09T21:31:05+00:00,1.3785820007324,3,versionB_stim.csv,ReadVersion.csv,Read,Read2,ATTIRE,CLOTHES,Study2,F,24,47,Study,User,-,,Study/JOL,"Study Phase",1275,,,-1,-1,,,,1
M20335622WDl,b2warws0zw,"Mediated JOLs",1,32,2024-09-09T21:31:06+00:00,1.0116188526154,3,versionB_stim.csv,ReadVersion.csv,Read,Read2,BENCH,HORN,Study2,U,43,21,Study,User,-,,Study/JOL,"Study Phase",910,,,-1,-1,,,,1
M20335622WDl,b2warws0zw,"Mediated JOLs",1,33,2024-09-09T21:31:08+00:00,1.6110579967499,3,versionB_stim.csv,ReadVersion.csv,Read,Read2,CACTUS,PLANT,Study2,F,21,29,Study,User,-,,Study/JOL,"Study Phase",1509,,,-1,-1,,,,1
M20335622WDl,b2warws0zw,"Mediated JOLs",1,34,2024-09-09T21:31:09+00:00,1.2690241336823,3,versionB_stim.csv,ReadVersion.csv,Read,Read2,OVEN,WEAVE,Study2,M,16,26,Study,User,-,,Study/JOL,"Study Phase",1170,,,-1,-1,,,,1
M20335622WDl,b2warws0zw,"Mediated JOLs",1,35,2024-09-09T21:31:11+00:00,1.6552488803864,3,versionB_stim.csv,ReadVersion.csv,Read,Read2,HAPPY,CAR,Study2,U,37,37,Study,User,-,,Study/JOL,"Study Phase",1556,,,-1,-1,,,,1
M20335622WDl,b2warws0zw,"Mediated JOLs",1,36,2024-09-09T21:31:13+00:00,1.9696681499481,3,versionB_stim.csv,ReadVersion.csv,Read,Read2,INCENSE,SMELL,Study2,F,28,31,Study,User,-,,Study/JOL,"Study Phase",1870,,,-1,-1,,,,1
M20335622WDl,b2warws0zw,"Mediated JOLs",1,37,2024-09-09T21:31:15+00:00,1.9261379241943,3,versionB_stim.csv,ReadVersion.csv,Read,Read2,DIETARY,SACK,Study2,U,42,44,Study,User,-,,Study/JOL,"Study Phase",1824,,,-1,-1,,,,1
M20335622WDl,b2warws0zw,"Mediated JOLs",1,38,2024-09-09T21:31:15+00:00,0.57410907745361,3,versionB_stim.csv,ReadVersion.csv,Read,Read2,HERD,COW,Study2,F,33,36,Study,User,-,,Study/JOL,"Study Phase",473,,,-1,-1,,,,1
M20335622WDl,b2warws0zw,"Mediated JOLs",1,39,2024-09-09T21:31:16+00:00,1.1175649166107,3,versionB_stim.csv,ReadVersion.csv,Read,Read2,TRAP,MAN,Study2,M,15,10,Study,User,-,,Study/JOL,"Study Phase",1018,,,-1,-1,,,,1
M20335622WDl,b2warws0zw,"Mediated JOLs",1,40,2024-09-09T21:31:17+00:00,0.97379493713379,3,versionB_stim.csv,ReadVersion.csv,Read,Read2,SUMMER,WHITE,Study2,M,6,22,Study,User,-,,Study/JOL,"Study Phase",872,,,-1,-1,,,,1
M20335622WDl,b2warws0zw,"Mediated JOLs",1,41,2024-09-09T21:31:18+00:00,0.93950796127319,3,versionB_stim.csv,ReadVersion.csv,Read,Read2,BLAZE,FIRE,Study2,F,26,30,Study,User,-,,Study/JOL,"Study Phase",837,,,-1,-1,,,,1
M20335622WDl,b2warws0zw,"Mediated JOLs",1,42,2024-09-09T21:31:21+00:00,2.3364009857178,3,versionB_stim.csv,ReadVersion.csv,Read,Read2,CHISEL,HAMMER,Study2,F,23,33,Study,User,-,,Study/JOL,"Study Phase",2234,,,-1,-1,,,,1
M20335622WDl,b2warws0zw,"Mediated JOLs",1,43,2024-09-09T21:31:22+00:00,0.89520716667175,3,versionB_stim.csv,ReadVersion.csv,Read,Read2,DEATH,BUSINESS,Study2,U,44,24,Study,User,-,,Study/JOL,"Study Phase",794,,,-1,-1,,,,1
M20335622WDl,b2warws0zw,"Mediated JOLs",1,44,2024-09-09T21:31:23+00:00,1.0467889308929,3,versionB_stim.csv,ReadVersion.csv,Read,Read2,SCHOOL,SIGN,Study2,M,7,13,Study,User,-,,Study/JOL,"Study Phase",946,,,-1,-1,,,,1
M20335622WDl,b2warws0zw,"Mediated JOLs",1,45,2024-09-09T21:31:24+00:00,0.94265198707581,3,versionB_stim.csv,ReadVersion.csv,Read,Read2,CHERRY,RED,Study2,F,25,11,Study,User,-,,Study/JOL,"Study Phase",836,,,-1,-1,,,,1
M20335622WDl,b2warws0zw,"Mediated JOLs",1,46,2024-09-09T21:31:25+00:00,0.96055102348328,3,versionB_stim.csv,ReadVersion.csv,Read,Read2,HEAVY,BIRD,Study2,M,13,23,Study,User,-,,Study/JOL,"Study Phase",847,,,-1,-1,,,,1
M20335622WDl,b2warws0zw,"Mediated JOLs",1,47,2024-09-09T21:31:26+00:00,1.0852069854736,3,versionB_stim.csv,ReadVersion.csv,Read,Read2,PANTS,DOG,Study2,M,8,38,Study,User,-,,Study/JOL,"Study Phase",980,,,-1,-1,,,,1
M20335622WDl,b2warws0zw,"Mediated JOLs",1,48,2024-09-09T21:31:27+00:00,1.04611992836,3,versionB_stim.csv,ReadVersion.csv,Read,Read2,WASP,BUG,Study2,F,34,49,Study,User,-,,Study/JOL,"Study Phase",942,,,-1,-1,,,,1
M20335622WDl,b2warws0zw,"Mediated JOLs",1,49,2024-09-09T21:31:28+00:00,1.2501270771027,3,versionB_stim.csv,ReadVersion.csv,Read,Read2,FEUD,FIGHT,Study2,F,31,14,Study,User,-,,Study/JOL,"Study Phase",1142,,,-1,-1,,,,1
M20335622WDl,b2warws0zw,"Mediated JOLs",1,50,2024-09-09T21:31:29+00:00,1.0451390743256,3,versionB_stim.csv,ReadVersion.csv,Read,Read2,RAKE,PLANT,Study2,M,14,9,Study,User,-,,Study/JOL,"Study Phase",942,,,-1,-1,,,,1
M20335622WDl,b2warws0zw,"Mediated JOLs",1,51,2024-09-09T21:31:30+00:00,1.1259138584137,3,versionB_stim.csv,ReadVersion.csv,Read,Read2,VALLEY,TOP,Study2,M,18,42,Study,User,-,,Study/JOL,"Study Phase",1022,,,-1,-1,,,,1
M20335622WDl,b2warws0zw,"Mediated JOLs",1,52,2024-09-09T21:32:41+00:00,70.828418016434,3,versionB_stim.csv,ReadVersion.csv,Read,Read2,LEASE,TOIL,Study2,U,46,50,Study,User,-,,Study/JOL,"Study Phase",70530,,,-1,-1,,,,1
M20335622WDl,b2warws0zw,"Mediated JOLs",1,53,2024-09-09T21:32:41+00:00,0.45208811759949,3,versionB_stim.csv,ReadVersion.csv,Read,Read2,GEESE,GOOSE,BUFFER2,Buffer,106,110,Study,User,-,,Study/JOL,BUFFER2,342,,,-1,-1,,,,1
M20335622WDl,b2warws0zw,"Mediated JOLs",1,54,2024-09-09T21:32:43+00:00,1.9737918376923,3,versionB_stim.csv,ReadVersion.csv,Read,Read2,SPACE,JAM,BUFFER1,Buffer,60,59,Study,User,-,,Study/JOL,BUFFER2,1865,,,-1,-1,,,,1
M20335622WDl,b2warws0zw,"Mediated JOLs",1,55,2024-09-09T21:32:46+00:00,2.9842391014099,3,versionB_stim.csv,ReadVersion.csv,Read,Read2,PITCHER,CATCHER,BUFFER1,Buffer,57,57,Study,User,-,,Study/JOL,BUFFER2,2881,,,-1,-1,,,,1
M20335622WDl,b2warws0zw,"Mediated JOLs",1,56,2024-09-09T21:32:47+00:00,0.98735809326172,3,versionB_stim.csv,ReadVersion.csv,Read,Read2,PEANUT,BUTTER,BUFFER1,Buffer,58,58,Study,User,-,,Study/JOL,BUFFER2,885,,,-1,-1,,,,1
M20335622WDl,b2warws0zw,"Mediated JOLs",1,57,2024-09-09T21:32:48+00:00,0.679123878479,3,versionB_stim.csv,ReadVersion.csv,Read,Read2,CARROT,POTATO,BUFFER4,Buffer,51,56,Study,User,-,,Study/JOL,BUFFER2,578,,,-1,-1,,,,1
M20335622WDl,b2warws0zw,"Mediated JOLs",1,58,2024-09-09T21:32:49+00:00,0.95001196861267,3,versionB_stim.csv,ReadVersion.csv,Read,Read2,,,,,,0,Instruct,User,-,"You have completed this section. Please press Enter.",Filler_Instruction,Instruct2,850,,,-1,-1,,,,1
M20335622WDl,b2warws0zw,"Mediated JOLs",1,59,2024-09-09T21:34:49+00:00,120.33252501488,3,versionB_stim.csv,ReadVersion.csv,Read,Read2,,,,,,0,FreeRecall,120,120,"Please list the 50 US states in alphabetical order. The task will automatically advance to the next screen after two minutes.",,Filler1,120001,"alabama arizona arkansas California Colorado Connecticut Florida Georgia Hawaii Illinois ",0,40288,106400,0,0,,0.742
M20335622WDl,b2warws0zw,"Mediated JOLs",1,60,2024-09-09T21:35:46+00:00,56.966248035431,3,versionB_stim.csv,ReadVersion.csv,Read,Read2,,,,,,0,Instruct,-,10,"You will now be presented with the first word from each of the previously studied item pairs. Please type the missing word. If you do not know the word, you may guess or press Enter to skip forward to the next pair.",,Instruct3,56839,,,-1,-1,,,,1
M20335622WDl,b2warws0zw,"Mediated JOLs",1,61,2024-09-09T21:35:53+00:00,7.1658971309662,3,versionB_stim.csv,ReadVersion.csv,Read,Read2,EYES,TASTE,Study2,M,10,51,Test,User,-,,Recall,Recall1,7041,taste,100,3844,6711,1,1,,1
M20335622WDl,b2warws0zw,"Mediated JOLs",1,62,2024-09-09T21:35:55+00:00,1.853040933609,3,versionB_stim.csv,ReadVersion.csv,Read,Read2,REALITY,WATER,Study2,M,9,19,Test,User,-,,Recall,Recall1,1743,water,100,1191,1673,1,1,,1
M20335622WDl,b2warws0zw,"Mediated JOLs",1,63,2024-09-09T21:35:58+00:00,2.5725889205933,3,versionB_stim.csv,ReadVersion.csv,Read,Read2,PUSH,CLUTTER,Study2,U,41,27,Test,User,-,,Recall,Recall1,2233,pull,18.181818181818,1353,1939,0,0,,1
M20335622WDl,b2warws0zw,"Mediated JOLs",1,64,2024-09-09T21:36:03+00:00,4.9704189300537,3,versionB_stim.csv,ReadVersion.csv,Read,Read2,STRONG,ACCIDENT,Study2,U,39,39,Test,User,-,,Recall,Recall1,4655,weak,16.666666666667,3597,3925,0,0,,1
M20335622WDl,b2warws0zw,"Mediated JOLs",1,65,2024-09-09T21:36:07+00:00,4.5449390411377,3,versionB_stim.csv,ReadVersion.csv,Read,Read2,SOAP,THIRST,Study2,M,12,15,Test,User,-,,Recall,Recall1,4441,taste,54.545454545455,3102,4219,0,0,,1
M20335622WDl,b2warws0zw,"Mediated JOLs",1,66,2024-09-09T21:36:09+00:00,2.0547499656677,3,versionB_stim.csv,ReadVersion.csv,Read,Read2,DOCUMENT,PAPER,Study2,F,27,12,Test,User,-,,Recall,Recall1,1954,paper,100,1154,1778,1,1,,1
M20335622WDl,b2warws0zw,"Mediated JOLs",1,67,2024-09-09T21:36:12+00:00,2.6203022003174,3,versionB_stim.csv,ReadVersion.csv,Read,Read2,SUMMER,WHITE,Study2,M,6,22,Test,User,-,,Recall,Recall1,2519,suagr,0,1764,2295,0,0,,1
M20335622WDl,b2warws0zw,"Mediated JOLs",1,68,2024-09-09T21:36:15+00:00,2.7182838916779,3,versionB_stim.csv,ReadVersion.csv,Read,Read2,VALLEY,TOP,Study2,M,18,42,Test,User,-,,Recall,Recall1,2614,well,0,2048,2448,0,0,,1
M20335622WDl,b2warws0zw,"Mediated JOLs",1,69,2024-09-09T21:36:17+00:00,2.222412109375,3,versionB_stim.csv,ReadVersion.csv,Read,Read2,GRILL,LEG,Study2,M,17,7,Test,User,-,,Recall,Recall1,2120,cook,0,1366,1872,0,0,,1
M20335622WDl,b2warws0zw,"Mediated JOLs",1,70,2024-09-09T21:36:20+00:00,2.5880949497223,3,versionB_stim.csv,ReadVersion.csv,Read,Read2,BRIDGE,WATER,Study2,F,35,45,Test,User,-,,Recall,Recall1,2479,water,100,1876,2396,1,1,,1
M20335622WDl,b2warws0zw,"Mediated JOLs",1,71,2024-09-09T21:36:23+00:00,2.983363866806,3,versionB_stim.csv,ReadVersion.csv,Read,Read2,TRAP,MAN,Study2,M,15,10,Test,User,-,,Recall,Recall1,2879,hole,0,2313,2715,0,0,,1
M20335622WDl,b2warws0zw,"Mediated JOLs",1,72,2024-09-09T21:36:24+00:00,1.7655291557312,3,versionB_stim.csv,ReadVersion.csv,Read,Read2,BLAZE,FIRE,Study2,F,26,30,Test,User,-,,Recall,Recall1,1664,fire,100,1251,1557,1,1,,1
M20335622WDl,b2warws0zw,"Mediated JOLs",1,73,2024-09-09T21:36:27+00:00,3.0003139972687,3,versionB_stim.csv,ReadVersion.csv,Read,Read2,HORNET,STING,Study2,F,30,34,Test,User,-,,Recall,Recall1,2899,sting,100,1464,2733,1,1,,1
M20335622WDl,b2warws0zw,"Mediated JOLs",1,74,2024-09-09T21:36:30+00:00,2.8459138870239,3,versionB_stim.csv,ReadVersion.csv,Read,Read2,DEATH,BUSINESS,Study2,U,44,24,Test,User,-,,Recall,Recall1,2743,life,33.333333333333,1250,2543,0,0,,1
M20335622WDl,b2warws0zw,"Mediated JOLs",1,75,2024-09-09T21:36:32+00:00,1.9573011398315,3,versionB_stim.csv,ReadVersion.csv,Read,Read2,CASH,LEG,Study2,U,50,8,Test,User,-,,Recall,Recall1,1856,leg,100,1363,1680,1,1,,1
M20335622WDl,b2warws0zw,"Mediated JOLs",1,76,2024-09-09T21:36:35+00:00,3.1646339893341,3,versionB_stim.csv,ReadVersion.csv,Read,Read2,CHILL,COLD,Study2,F,32,16,Test,User,-,,Recall,Recall1,3054,food,50,2632,2937,0,0,,1
M20335622WDl,b2warws0zw,"Mediated JOLs",1,77,2024-09-09T21:36:42+00:00,6.8016328811646,3,versionB_stim.csv,ReadVersion.csv,Read,Read2,MIRROR,CHILDREN,Study2,U,49,25,Test,User,-,,Recall,Recall1,6700,"children ",100,1258,2793,1,1,,1
M20335622WDl,b2warws0zw,"Mediated JOLs",1,78,2024-09-09T21:37:59+00:00,77.047214984894,3,versionB_stim.csv,ReadVersion.csv,Read,Read2,DIETARY,SACK,Study2,U,42,44,Test,User,-,,Recall,Recall1,76774,food,0,76260,76621,0,0,,1
M20335622WDl,b2warws0zw,"Mediated JOLs",1,79,2024-09-09T21:38:02+00:00,3.3526430130005,3,versionB_stim.csv,ReadVersion.csv,Read,Read2,CHOP,CUT,Study2,F,22,46,Test,User,-,,Recall,Recall1,3244,chip,28.571428571429,1437,3011,0,0,,1
M20335622WDl,b2warws0zw,"Mediated JOLs",1,80,2024-09-09T21:38:05+00:00,2.9536061286926,3,versionB_stim.csv,ReadVersion.csv,Read,Read2,SUGAR,RIDDLE,Study2,U,40,40,Test,User,-,,Recall,Recall1,2842,water,18.181818181818,2171,2736,0,0,,1
M20335622WDl,b2warws0zw,"Mediated JOLs",1,81,2024-09-09T21:39:20+00:00,74.258786916733,3,versionB_stim.csv,ReadVersion.csv,Read,Read2,WINDOW,HANDLE,Study2,M,19,35,Test,User,-,,Recall,Recall1,73974,glass,18.181818181818,73067,73808,0,0,,1
M20335622WDl,b2warws0zw,"Mediated JOLs",1,82,2024-09-09T21:39:49+00:00,29.387516975403,3,versionB_stim.csv,ReadVersion.csv,Read,Read2,ART,WOLF,Study2,U,38,20,Test,User,-,,Recall,Recall1,29272,piece,0,1238,23144,0,0,,1
M20335622WDl,b2warws0zw,"Mediated JOLs",1,83,2024-09-09T21:39:54+00:00,4.7174959182739,3,versionB_stim.csv,ReadVersion.csv,Read,Read2,RAZOR,ARM,Study2,M,20,48,Test,User,-,,Recall,Recall1,4600,blade,25,2278,4325,0,0,,1
M20335622WDl,b2warws0zw,"Mediated JOLs",1,84,2024-09-09T21:39:57+00:00,3.4124519824982,3,versionB_stim.csv,ReadVersion.csv,Read,Read2,SCHOOL,SIGN,Study2,M,7,13,Test,User,-,,Recall,Recall1,3311,learn,22.222222222222,2592,3076,0,0,,1
M20335622WDl,b2warws0zw,"Mediated JOLs",1,85,2024-09-09T21:40:37+00:00,39.906506061554,3,versionB_stim.csv,ReadVersion.csv,Read,Read2,HERD,COW,Study2,F,33,36,Test,User,-,,Recall,Recall1,39798,sheep,0,1412,2117,0,0,,1
M20335622WDl,b2warws0zw,"Mediated JOLs",1,86,2024-09-09T21:40:43+00:00,5.751060962677,3,versionB_stim.csv,ReadVersion.csv,Read,Read2,FEUD,FIGHT,Study2,F,31,14,Test,User,-,,Recall,Recall1,5638,money,0,4852,5355,0,0,,1
M20335622WDl,b2warws0zw,"Mediated JOLs",1,87,2024-09-09T21:40:46+00:00,2.9092621803284,3,versionB_stim.csv,ReadVersion.csv,Read,Read2,CHISEL,HAMMER,Study2,F,23,33,Test,User,-,,Recall,Recall1,2801,chip,20,2092,2542,0,0,,1
M20335622WDl,b2warws0zw,"Mediated JOLs",1,88,2024-09-09T21:40:48+00:00,2.5962529182434,3,versionB_stim.csv,ReadVersion.csv,Read,Read2,ATTIRE,CLOTHES,Study2,F,24,47,Test,User,-,,Recall,Recall1,2496,wear,18.181818181818,1998,2318,0,0,,1
M20335622WDl,b2warws0zw,"Mediated JOLs",1,89,2024-09-09T21:40:52+00:00,3.5347008705139,3,versionB_stim.csv,ReadVersion.csv,Read,Read2,WASP,BUG,Study2,F,34,49,Test,User,-,,Recall,Recall1,3432,sting,25,1347,3221,0,0,,1
M20335622WDl,b2warws0zw,"Mediated JOLs",1,90,2024-09-09T21:40:55+00:00,2.6776750087738,3,versionB_stim.csv,ReadVersion.csv,Read,Read2,LEAGUE,BASEBALL,Study2,F,29,28,Test,User,-,,Recall,Recall1,2567,baseball,100,1251,2262,1,1,,1
M20335622WDl,b2warws0zw,"Mediated JOLs",1,91,2024-09-09T21:41:00+00:00,5.1386640071869,3,versionB_stim.csv,ReadVersion.csv,Read,Read2,NURSE,COURT,Study2,M,11,41,Test,User,-,,Recall,Recall1,5036,doctor,36.363636363636,1652,2369,0,0,,1
M20335622WDl,b2warws0zw,"Mediated JOLs",1,92,2024-09-09T21:41:03+00:00,3.5171780586243,3,versionB_stim.csv,ReadVersion.csv,Read,Read2,CHERRY,RED,Study2,F,25,11,Test,User,-,,Recall,Recall1,3203,pick,0,2458,2885,0,0,,1
M20335622WDl,b2warws0zw,"Mediated JOLs",1,93,2024-09-09T21:41:05+00:00,2.0019960403442,3,versionB_stim.csv,ReadVersion.csv,Read,Read2,OVEN,WEAVE,Study2,M,16,26,Test,User,-,,Recall,Recall1,1892,heat,44.444444444444,1200,1529,0,0,,1
M20335622WDl,b2warws0zw,"Mediated JOLs",1,94,2024-09-09T21:41:08+00:00,2.9580590724945,3,versionB_stim.csv,ReadVersion.csv,Read,Read2,CACTUS,PLANT,Study2,F,21,29,Test,User,-,,Recall,Recall1,2855,plant,100,1945,2559,1,1,,1
M20335622WDl,b2warws0zw,"Mediated JOLs",1,95,2024-09-09T21:42:09+00:00,61.122227907181,3,versionB_stim.csv,ReadVersion.csv,Read,Read2,HEAVY,BIRD,Study2,M,13,23,Test,User,-,,Recall,Recall1,61014,light,22.222222222222,1356,21786,0,0,,1
M20335622WDl,b2warws0zw,"Mediated JOLs",1,96,2024-09-09T21:42:13+00:00,3.9540059566498,3,versionB_stim.csv,ReadVersion.csv,Read,Read2,BENCH,HORN,Study2,U,43,21,Test,User,-,,Recall,Recall1,3841,press,22.222222222222,2819,3466,0,0,,1
M20335622WDl,b2warws0zw,"Mediated JOLs",1,97,2024-09-09T21:42:24+00:00,10.781311988831,3,versionB_stim.csv,ReadVersion.csv,Read,Read2,PANTS,DOG,Study2,M,8,38,Test,User,-,,Recall,Recall1,10672,clothes,20,9545,10380,0,0,,0.463
M20335622WDl,b2warws0zw,"Mediated JOLs",1,98,2024-09-09T21:42:30+00:00,5.7769269943237,3,versionB_stim.csv,ReadVersion.csv,Read,Read2,RAKE,PLANT,Study2,M,14,9,Test,User,-,,Recall,Recall1,5668,leaves,36.363636363636,4328,5268,0,0,,1
M20335622WDl,b2warws0zw,"Mediated JOLs",1,99,2024-09-09T21:42:30+00:00,0.10456919670105,3,versionB_stim.csv,ReadVersion.csv,Read,Read2,HAPPY,CAR,Study2,U,37,37,Test,User,-,,Recall,Recall1,5,,0,-1,-1,0,0,,1
M20335622WDl,b2warws0zw,"Mediated JOLs",1,100,2024-09-09T21:42:48+00:00,17.659924983978,3,versionB_stim.csv,ReadVersion.csv,Read,Read2,ARTERY,BRONZE,Study2,U,48,32,Test,User,-,,Recall,Recall1,17550,vein,20,12970,14025,0,0,,0.739
M20335622WDl,b2warws0zw,"Mediated JOLs",1,101,2024-09-09T21:42:59+00:00,11.638095855713,3,versionB_stim.csv,ReadVersion.csv,Read,Read2,BOTH,OUNCE,Study2,U,47,17,Test,User,-,,Recall,Recall1,11521,twice,40,3664,5650,0,0,,1
M20335622WDl,b2warws0zw,"Mediated JOLs",1,102,2024-09-09T21:43:04+00:00,4.8226990699768,3,versionB_stim.csv,ReadVersion.csv,Read,Read2,KING,VASE,Study2,U,36,18,Test,User,-,,Recall,Recall1,4715,castle,60,2798,3588,0,0,,1
M20335622WDl,b2warws0zw,"Mediated JOLs",1,103,2024-09-09T21:43:09+00:00,4.8462860584259,3,versionB_stim.csv,ReadVersion.csv,Read,Read2,SICK,HIDE,Study2,U,45,43,Test,User,-,,Recall,Recall1,4743,disease,36.363636363636,1876,2829,0,0,,1
M20335622WDl,b2warws0zw,"Mediated JOLs",1,104,2024-09-09T21:44:03+00:00,54.191959857941,3,versionB_stim.csv,ReadVersion.csv,Read,Read2,INCENSE,SMELL,Study2,F,28,31,Test,User,-,,Recall,Recall1,54082,smell,100,53152,53705,1,1,,1
M20335622WDl,b2warws0zw,"Mediated JOLs",1,105,2024-09-09T21:44:06+00:00,2.4738600254059,3,versionB_stim.csv,ReadVersion.csv,Read,Read2,LEASE,TOIL,Study2,U,46,50,Test,User,-,,Recall,Recall1,2354,learn,22.222222222222,1659,2095,0,0,,1
M20335622WDl,b2warws0zw,"Mediated JOLs",1,106,2024-09-09T21:45:36+00:00,90.599209070206,3,versionB_stim.csv,ReadVersion.csv,Read,Read2,,,,,,0,Instruct,-,10,"You will now be presented with a new set of word pairs. Please study each pair. Remember that your memory will be tested! When finished, press Enter to move to the next pair.",Initial_Instruct,Instruct4,90236,,,-1,-1,,,,0.923
M20335622WDl,b2warws0zw,"Mediated JOLs",1,107,2024-09-09T21:45:38+00:00,1.3897068500519,3,versionB_stim.csv,ReadVersion.csv,Read,Read2,,,,,,0,Instruct,User,-,"Press Enter when you are readty to begin",,Instruct11,1284,,,-1,-1,,,,1
M20335622WDl,b2warws0zw,"Mediated JOLs",1,108,2024-09-09T21:45:39+00:00,1.4754240512848,3,versionB_stim.csv,ReadVersion.csv,Read,Read2,TREES,GREEN,BUFFER1,Buffer,56,61,Study,User,-,,Study/JOL,BUFFER2,1369,,,-1,-1,,,,1
M20335622WDl,b2warws0zw,"Mediated JOLs",1,109,2024-09-09T21:45:40+00:00,1.4744281768799,3,versionB_stim.csv,ReadVersion.csv,Read,Read2,SCARE,FRIGHT,BUFFER1,Buffer,59,60,Study,User,-,,Study/JOL,BUFFER2,1355,,,-1,-1,,,,1
M20335622WDl,b2warws0zw,"Mediated JOLs",1,110,2024-09-09T21:45:42+00:00,1.3559439182281,3,versionB_stim.csv,ReadVersion.csv,Read,Read2,MOON,SPACE,BUFFER2,Buffer,109,107,Study,User,-,,Study/JOL,BUFFER2,1251,,,-1,-1,,,,1
M20335622WDl,b2warws0zw,"Mediated JOLs",1,111,2024-09-09T21:45:43+00:00,1.4120578765869,3,versionB_stim.csv,ReadVersion.csv,Read,Read2,SHRIMP,FISH,BUFFER4,Buffer,53,55,Study,User,-,,Study/JOL,BUFFER2,1309,,,-1,-1,,,,1
M20335622WDl,b2warws0zw,"Mediated JOLs",1,112,2024-09-09T21:45:45+00:00,1.2877881526947,3,versionB_stim.csv,ReadVersion.csv,Read,Read2,CAMP,ADVENTURE,BUFFER4,Buffer,55,52,Study,User,-,,Study/JOL,BUFFER2,1184,,,-1,-1,,,,1
M20335622WDl,b2warws0zw,"Mediated JOLs",1,113,2024-09-09T21:45:46+00:00,1.9375829696655,3,versionB_stim.csv,ReadVersion.csv,Read,Read2,ROUGH,WORM,Study1,M,65,88,Study,User,-,,Study/JOL,"Study Phase2",1836,,,-1,-1,,,,1
M20335622WDl,b2warws0zw,"Mediated JOLs",1,114,2024-09-09T21:45:48+00:00,1.4076418876648,3,versionB_stim.csv,ReadVersion.csv,Read,Read2,LITTER,TRASH,Study1,F,76,72,Study,User,-,,Study/JOL,"Study Phase2",1305,,,-1,-1,,,,1
M20335622WDl,b2warws0zw,"Mediated JOLs",1,115,2024-09-09T21:45:50+00:00,1.9707660675049,3,versionB_stim.csv,ReadVersion.csv,Read,Read2,CRACKLE,ELECTION,Study1,U,94,80,Study,User,-,,Study/JOL,"Study Phase2",1871,,,-1,-1,,,,1
M20335622WDl,b2warws0zw,"Mediated JOLs",1,116,2024-09-09T21:45:52+00:00,2.5513648986816,3,versionB_stim.csv,ReadVersion.csv,Read,Read2,CAKE,HAND,Study1,U,104,79,Study,User,-,,Study/JOL,"Study Phase2",2449,,,-1,-1,,,,1
M20335622WDl,b2warws0zw,"Mediated JOLs",1,117,2024-09-09T21:45:59+00:00,6.476243019104,3,versionB_stim.csv,ReadVersion.csv,Read,Read2,SIP,DRINK,Study1,F,87,101,Study,User,-,,Study/JOL,"Study Phase2",6375,,,-1,-1,,,,1
M20335622WDl,b2warws0zw,"Mediated JOLs",1,118,2024-09-09T21:46:03+00:00,4.5892210006714,3,versionB_stim.csv,ReadVersion.csv,Read,Read2,HORSE,TIRE,Study1,M,69,91,Study,User,-,,Study/JOL,"Study Phase2",4487,,,-1,-1,,,,1
M20335622WDl,b2warws0zw,"Mediated JOLs",1,119,2024-09-09T21:46:06+00:00,2.8351850509644,3,versionB_stim.csv,ReadVersion.csv,Read,Read2,HARD,BALL,Study1,M,75,71,Study,User,-,,Study/JOL,"Study Phase2",2728,,,-1,-1,,,,1
M20335622WDl,b2warws0zw,"Mediated JOLs",1,120,2024-09-09T21:46:10+00:00,3.3854479789734,3,versionB_stim.csv,ReadVersion.csv,Read,Read2,BIRTHDAY,APPLE,Study1,M,64,69,Study,User,-,,Study/JOL,"Study Phase2",3283,,,-1,-1,,,,1
M20335622WDl,b2warws0zw,"Mediated JOLs",1,121,2024-09-09T21:46:21+00:00,11.173751115799,3,versionB_stim.csv,ReadVersion.csv,Read,Read2,TREE,PANCAKES,Study1,M,66,73,Study,User,-,,Study/JOL,"Study Phase2",11075,,,-1,-1,,,,1
M20335622WDl,b2warws0zw,"Mediated JOLs",1,122,2024-09-09T21:46:22+00:00,1.2948908805847,3,versionB_stim.csv,ReadVersion.csv,Read,Read2,TUNA,FISH,Study1,F,90,90,Study,User,-,,Study/JOL,"Study Phase2",1189,,,-1,-1,,,,1
M20335622WDl,b2warws0zw,"Mediated JOLs",1,123,2024-09-09T21:46:32+00:00,10.124163150787,3,versionB_stim.csv,ReadVersion.csv,Read,Read2,WEDDING,HAND,Study1,M,72,94,Study,User,-,,Study/JOL,"Study Phase2",10019,,,-1,-1,,,,1
M20335622WDl,b2warws0zw,"Mediated JOLs",1,124,2024-09-09T21:46:39+00:00,6.2290270328522,3,versionB_stim.csv,ReadVersion.csv,Read,Read2,SCALP,HEAD,Study1,F,78,105,Study,User,-,,Study/JOL,"Study Phase2",6121,,,-1,-1,,,,1
M20335622WDl,b2warws0zw,"Mediated JOLs",1,125,2024-09-09T21:46:43+00:00,4.7551047801971,3,versionB_stim.csv,ReadVersion.csv,Read,Read2,SWAN,BIRD,Study1,F,81,103,Study,User,-,,Study/JOL,"Study Phase2",4650,,,-1,-1,,,,1
M20335622WDl,b2warws0zw,"Mediated JOLs",1,126,2024-09-09T21:46:46+00:00,3.1221752166748,3,versionB_stim.csv,ReadVersion.csv,Read,Read2,ORCHID,FLOWER,Study1,F,89,62,Study,User,-,,Study/JOL,"Study Phase2",3020,,,-1,-1,,,,1
M20335622WDl,b2warws0zw,"Mediated JOLs",1,127,2024-09-09T21:46:49+00:00,3.0042078495026,3,versionB_stim.csv,ReadVersion.csv,Read,Read2,WORD,SENTENCE,Study1,F,82,63,Study,User,-,,Study/JOL,"Study Phase2",2902,,,-1,-1,,,,1
M20335622WDl,b2warws0zw,"Mediated JOLs",1,128,2024-09-09T21:46:51+00:00,1.7707800865173,3,versionB_stim.csv,ReadVersion.csv,Read,Read2,CREDIT,CARD,Study1,F,88,66,Study,User,-,,Study/JOL,"Study Phase2",1669,,,-1,-1,,,,1
M20335622WDl,b2warws0zw,"Mediated JOLs",1,129,2024-09-09T21:46:53+00:00,1.4319169521332,3,versionB_stim.csv,ReadVersion.csv,Read,Read2,MAZE,PHONE,Study1,U,97,81,Study,User,-,,Study/JOL,"Study Phase2",1330,,,-1,-1,,,,1
M20335622WDl,b2warws0zw,"Mediated JOLs",1,130,2024-09-09T21:46:55+00:00,2.7719559669495,3,versionB_stim.csv,ReadVersion.csv,Read,Read2,HYGIENE,CLEAN,Study1,F,83,93,Study,User,-,,Study/JOL,"Study Phase2",2668,,,-1,-1,,,,1
M20335622WDl,b2warws0zw,"Mediated JOLs",1,131,2024-09-09T21:46:57+00:00,1.7108860015869,3,versionB_stim.csv,ReadVersion.csv,Read,Read2,SHELL,SHAKE,Study1,U,98,95,Study,User,-,,Study/JOL,"Study Phase2",1609,,,-1,-1,,,,1
M20335622WDl,b2warws0zw,"Mediated JOLs",1,132,2024-09-09T21:46:59+00:00,2.3034391403198,3,versionB_stim.csv,ReadVersion.csv,Read,Read2,SOON,BELT,Study1,U,101,87,Study,User,-,,Study/JOL,"Study Phase2",2196,,,-1,-1,,,,1
M20335622WDl,b2warws0zw,"Mediated JOLs",1,133,2024-09-09T21:47:25+00:00,25.605333805084,3,versionB_stim.csv,ReadVersion.csv,Read,Read2,MIRROR,MAROON,Study1,U,91,104,Study,User,-,,Study/JOL,"Study Phase2",25501,,,-1,-1,,,,1
M20335622WDl,b2warws0zw,"Mediated JOLs",1,134,2024-09-09T21:47:26+00:00,1.3507351875305,3,versionB_stim.csv,ReadVersion.csv,Read,Read2,GIVE,STEAK,Study1,U,93,75,Study,User,-,,Study/JOL,"Study Phase2",1242,,,-1,-1,,,,1
M20335622WDl,b2warws0zw,"Mediated JOLs",1,135,2024-09-09T21:47:27+00:00,0.90393781661987,3,versionB_stim.csv,ReadVersion.csv,Read,Read2,AFFECTION,LOVE,Study1,F,86,84,Study,User,-,,Study/JOL,"Study Phase2",801,,,-1,-1,,,,1
M20335622WDl,b2warws0zw,"Mediated JOLs",1,136,2024-09-09T21:47:29+00:00,1.3927390575409,3,versionB_stim.csv,ReadVersion.csv,Read,Read2,MEAT,KEYS,Study1,U,96,89,Study,User,-,,Study/JOL,"Study Phase2",1291,,,-1,-1,,,,1
M20335622WDl,b2warws0zw,"Mediated JOLs",1,137,2024-09-09T21:47:31+00:00,2.3022611141205,3,versionB_stim.csv,ReadVersion.csv,Read,Read2,ROOT,PLANT,Study1,F,80,106,Study,User,-,,Study/JOL,"Study Phase2",2199,,,-1,-1,,,,1
M20335622WDl,b2warws0zw,"Mediated JOLs",1,138,2024-09-09T21:47:32+00:00,1.3176620006561,3,versionB_stim.csv,ReadVersion.csv,Read,Read2,LISTEN,FICTION,Study1,U,99,97,Study,User,-,,Study/JOL,"Study Phase2",1213,,,-1,-1,,,,1
M20335622WDl,b2warws0zw,"Mediated JOLs",1,139,2024-09-09T21:47:34+00:00,1.259486913681,3,versionB_stim.csv,ReadVersion.csv,Read,Read2,CIRCLE,FUN,Study1,M,68,82,Study,User,-,,Study/JOL,"Study Phase2",1158,,,-1,-1,,,,1
M20335622WDl,b2warws0zw,"Mediated JOLs",1,140,2024-09-09T21:49:36+00:00,122.78955197334,3,versionB_stim.csv,ReadVersion.csv,Read,Read2,KEYS,ROD,Study1,U,100,85,Study,User,-,,Study/JOL,"Study Phase2",122476,,,-1,-1,,,,1
M20335622WDl,b2warws0zw,"Mediated JOLs",1,141,2024-09-09T21:50:32+00:00,55.598186969757,3,versionB_stim.csv,ReadVersion.csv,Read,Read2,DAY,BLACK,Study1,M,73,76,Study,User,-,,Study/JOL,"Study Phase2",55474,,,-1,-1,,,,0.036
M20335622WDl,b2warws0zw,"Mediated JOLs",1,142,2024-09-09T21:50:39+00:00,6.6631360054016,3,versionB_stim.csv,ReadVersion.csv,Read,Read2,LION,FLAG,Study1,M,61,65,Study,User,-,,Study/JOL,"Study Phase2",6536,,,-1,-1,,,,1
M20335622WDl,b2warws0zw,"Mediated JOLs",1,143,2024-09-09T21:50:41+00:00,2.8053410053253,3,versionB_stim.csv,ReadVersion.csv,Read,Read2,MULE,DONKEY,Study1,F,85,98,Study,User,-,,Study/JOL,"Study Phase2",2701,,,-1,-1,,,,1
M20335622WDl,b2warws0zw,"Mediated JOLs",1,144,2024-09-09T21:50:44+00:00,2.1919219493866,3,versionB_stim.csv,ReadVersion.csv,Read,Read2,MULE,DONKEY,Study1,F,79,78,Study,User,-,,Study/JOL,"Study Phase2",2087,,,-1,-1,,,,1
M20335622WDl,b2warws0zw,"Mediated JOLs",1,145,2024-09-09T21:51:29+00:00,45.168830156326,3,versionB_stim.csv,ReadVersion.csv,Read,Read2,VEHICLE,CHARM,Study1,U,95,74,Study,User,-,,Study/JOL,"Study Phase2",45059,,,-1,-1,,,,1
M20335622WDl,b2warws0zw,"Mediated JOLs",1,146,2024-09-09T21:52:56+00:00,86.805475950241,3,versionB_stim.csv,ReadVersion.csv,Read,Read2,SIGN,TICK,Study1,U,102,102,Study,User,-,,Study/JOL,"Study Phase2",86458,,,-1,-1,,,,1
M20335622WDl,b2warws0zw,"Mediated JOLs",1,147,2024-09-09T21:52:59+00:00,3.4278030395508,3,versionB_stim.csv,ReadVersion.csv,Read,Read2,CEILING,RUG,Study1,M,70,99,Study,User,-,,Study/JOL,"Study Phase2",3305,,,-1,-1,,,,1
M20335622WDl,b2warws0zw,"Mediated JOLs",1,148,2024-09-09T21:53:01+00:00,2.1980619430542,3,versionB_stim.csv,ReadVersion.csv,Read,Read2,NAP,SLEEP,Study1,F,84,67,Study,User,-,,Study/JOL,"Study Phase2",2089,,,-1,-1,,,,1
M20335622WDl,b2warws0zw,"Mediated JOLs",1,149,2024-09-09T21:53:03+00:00,1.3529970645905,3,versionB_stim.csv,ReadVersion.csv,Read,Read2,FUZZY,BANG,Study1,U,105,86,Study,User,-,,Study/JOL,"Study Phase2",1250,,,-1,-1,,,,1
M20335622WDl,b2warws0zw,"Mediated JOLs",1,150,2024-09-09T21:53:26+00:00,23.960943937302,3,versionB_stim.csv,ReadVersion.csv,Read,Read2,BEACH,SQUARE,Study1,M,62,100,Study,User,-,,Study/JOL,"Study Phase2",23848,,,-1,-1,,,,1
M20335622WDl,b2warws0zw,"Mediated JOLs",1,151,2024-09-09T21:53:29+00:00,2.3622748851776,3,versionB_stim.csv,ReadVersion.csv,Read,Read2,CRY,BEER,Study1,M,71,92,Study,User,-,,Study/JOL,"Study Phase2",2251,,,-1,-1,,,,1
M20335622WDl,b2warws0zw,"Mediated JOLs",1,152,2024-09-09T21:53:31+00:00,2.3076801300049,3,versionB_stim.csv,ReadVersion.csv,Read,Read2,STRETCH,CLOTH,Study1,U,92,70,Study,User,-,,Study/JOL,"Study Phase2",2206,,,-1,-1,,,,1
M20335622WDl,b2warws0zw,"Mediated JOLs",1,153,2024-09-09T21:53:33+00:00,1.6855731010437,3,versionB_stim.csv,ReadVersion.csv,Read,Read2,TEMPERATURE,MORNING,Study1,U,103,77,Study,User,-,,Study/JOL,"Study Phase2",1574,,,-1,-1,,,,1
M20335622WDl,b2warws0zw,"Mediated JOLs",1,154,2024-09-09T21:53:35+00:00,1.816045999527,3,versionB_stim.csv,ReadVersion.csv,Read,Read2,TOOTH,COMB,Study1,M,74,68,Study,User,-,,Study/JOL,"Study Phase2",1712,,,-1,-1,,,,1
M20335622WDl,b2warws0zw,"Mediated JOLs",1,155,2024-09-09T21:53:38+00:00,3.349750995636,3,versionB_stim.csv,ReadVersion.csv,Read,Read2,WAGE,MONEY,Study1,F,77,96,Study,User,-,,Study/JOL,"Study Phase2",3251,,,-1,-1,,,,1
M20335622WDl,b2warws0zw,"Mediated JOLs",1,156,2024-09-09T21:53:40+00:00,2.4357368946075,3,versionB_stim.csv,ReadVersion.csv,Read,Read2,BAT,JUMP,Study1,M,67,83,Study,User,-,,Study/JOL,"Study Phase2",2332,,,-1,-1,,,,1
M20335622WDl,b2warws0zw,"Mediated JOLs",1,157,2024-09-09T21:53:42+00:00,1.7252590656281,3,versionB_stim.csv,ReadVersion.csv,Read,Read2,WAR,LOUD,Study1,M,63,64,Study,User,-,,Study/JOL,"Study Phase2",1622,,,-1,-1,,,,1
M20335622WDl,b2warws0zw,"Mediated JOLs",1,158,2024-09-09T21:53:44+00:00,2.2745418548584,3,versionB_stim.csv,ReadVersion.csv,Read,Read2,THING,STUFF,BUFFER2,Buffer,110,111,Study,User,-,,Study/JOL,BUFFER2,2171,,,-1,-1,,,,1
M20335622WDl,b2warws0zw,"Mediated JOLs",1,159,2024-09-09T21:53:46+00:00,1.4888920783997,3,versionB_stim.csv,ReadVersion.csv,Read,Read2,MALT,CHOCOLATE,BUFFER2,Buffer,108,109,Study,User,-,,Study/JOL,BUFFER2,1387,,,-1,-1,,,,1
M20335622WDl,b2warws0zw,"Mediated JOLs",1,160,2024-09-09T21:53:48+00:00,2.0117609500885,3,versionB_stim.csv,ReadVersion.csv,Read,Read2,SHERRIF,POLICE,BUFFER2,Buffer,107,108,Study,User,-,,Study/JOL,BUFFER2,1909,,,-1,-1,,,,1
M20335622WDl,b2warws0zw,"Mediated JOLs",1,161,2024-09-09T21:53:50+00:00,1.7071371078491,3,versionB_stim.csv,ReadVersion.csv,Read,Read2,ICE,FROZEN,BUFFER4,Buffer,54,53,Study,User,-,,Study/JOL,BUFFER2,1604,,,-1,-1,,,,1
M20335622WDl,b2warws0zw,"Mediated JOLs",1,162,2024-09-09T21:53:54+00:00,4.0747289657593,3,versionB_stim.csv,ReadVersion.csv,Read,Read2,NOODLE,STRING,BUFFER4,Buffer,52,54,Study,User,-,,Study/JOL,BUFFER2,3971,,,-1,-1,,,,1
M20335622WDl,b2warws0zw,"Mediated JOLs",1,163,2024-09-09T21:53:56+00:00,2.3622589111328,3,versionB_stim.csv,ReadVersion.csv,Read,Read2,,,,,,0,Instruct,User,-,"You have completed this section. Please press Enter.",Filler_Instruction,Instruct2,2258,,,-1,-1,,,,1
M20335622WDl,b2warws0zw,"Mediated JOLs",1,164,2024-09-09T21:55:56+00:00,120.35255813599,3,versionB_stim.csv,ReadVersion.csv,Read,Read2,,,,,,0,FreeRecall,120,120,"Please list the 50 US states in alphabetical order. The task will automatically advance to the next screen after two minutes.",,Filler1,120001,"Alabama Alaska Arkansas California Colorado Connecticut Delaware Florida ",0,24288,79313,0,0,,0.824
M20335622WDl,b2warws0zw,"Mediated JOLs",1,165,2024-09-09T21:56:16+00:00,19.580410003662,3,versionB_stim.csv,ReadVersion.csv,Read,Read2,,,,,,0,Instruct,-,10,"You will now be presented with the first word from each of the previously studied item pairs. Please type the missing word. If you do not know the word, you may guess or press Enter to skip forward to the next pair.",,Instruct3,19463,,,-1,-1,,,,1
M20335622WDl,b2warws0zw,"Mediated JOLs",1,166,2024-09-09T21:56:19+00:00,2.9612028598785,3,versionB_stim.csv,ReadVersion.csv,Read,Read2,MEAT,KEYS,Study1,U,96,89,Test,User,-,,Recall,Recall2,2847,food,0,2245,2693,0,0,,1
M20335622WDl,b2warws0zw,"Mediated JOLs",1,167,2024-09-09T21:56:24+00:00,4.7341129779816,3,versionB_stim.csv,ReadVersion.csv,Read,Read2,ORCHID,FLOWER,Study1,F,89,62,Test,User,-,,Recall,Recall2,4629,flower,100,2607,3243,1,1,,1
M20335622WDl,b2warws0zw,"Mediated JOLs",1,168,2024-09-09T21:56:28+00:00,4.2785561084747,3,versionB_stim.csv,ReadVersion.csv,Read,Read2,MULE,DONKEY,Study1,F,85,98,Test,User,-,,Recall,Recall2,4173,donkey,100,2617,3663,1,1,,1
M20335622WDl,b2warws0zw,"Mediated JOLs",1,169,2024-09-09T21:56:31+00:00,2.8690638542175,3,versionB_stim.csv,ReadVersion.csv,Read,Read2,TOOTH,COMB,Study1,M,74,68,Test,User,-,,Recall,Recall2,2768,teeth,0,1934,2510,0,0,,1
M20335622WDl,b2warws0zw,"Mediated JOLs",1,170,2024-09-09T21:56:36+00:00,5.3083641529083,3,versionB_stim.csv,ReadVersion.csv,Read,Read2,MIRROR,MAROON,Study1,U,91,104,Test,User,-,,Recall,Recall2,5199,maroon,100,2207,4378,1,1,,1
M20335622WDl,b2warws0zw,"Mediated JOLs",1,171,2024-09-09T21:56:39+00:00,3.053230047226,3,versionB_stim.csv,ReadVersion.csv,Read,Read2,LITTER,TRASH,Study1,F,76,72,Test,User,-,,Recall,Recall2,2953,trash,100,2179,2729,1,1,,1
M20335622WDl,b2warws0zw,"Mediated JOLs",1,172,2024-09-09T21:56:43+00:00,4.1947309970856,3,versionB_stim.csv,ReadVersion.csv,Read,Read2,MULE,DONKEY,Study1,F,79,78,Test,User,-,,Recall,Recall2,4089,donkey,100,2261,3443,1,1,,1
M20335622WDl,b2warws0zw,"Mediated JOLs",1,173,2024-09-09T21:56:50+00:00,6.5485479831696,3,versionB_stim.csv,ReadVersion.csv,Read,Read2,CEILING,RUG,Study1,M,70,99,Test,User,-,,Recall,Recall2,6452,rough,75,2903,6087,0,1,,1
M20335622WDl,b2warws0zw,"Mediated JOLs",1,174,2024-09-09T21:56:54+00:00,4.3560168743134,3,versionB_stim.csv,ReadVersion.csv,Read,Read2,ROOT,PLANT,Study1,F,80,106,Test,User,-,,Recall,Recall2,4248,tree,22.222222222222,3523,4120,0,0,,1
M20335622WDl,b2warws0zw,"Mediated JOLs",1,175,2024-09-09T21:56:57+00:00,2.1821300983429,3,versionB_stim.csv,ReadVersion.csv,Read,Read2,SOON,BELT,Study1,U,101,87,Test,User,-,,Recall,Recall2,2075,later,44.444444444444,1404,1982,0,0,,1
M20335622WDl,b2warws0zw,"Mediated JOLs",1,176,2024-09-09T21:56:58+00:00,1.9519069194794,3,versionB_stim.csv,ReadVersion.csv,Read,Read2,AFFECTION,LOVE,Study1,F,86,84,Test,User,-,,Recall,Recall2,1846,love,100,1079,1671,1,1,,1
M20335622WDl,b2warws0zw,"Mediated JOLs",1,177,2024-09-09T21:57:02+00:00,3.2590341567993,3,versionB_stim.csv,ReadVersion.csv,Read,Read2,SIP,DRINK,Study1,F,87,101,Test,User,-,,Recall,Recall2,3154,drink,100,2379,2897,1,1,,1
M20335622WDl,b2warws0zw,"Mediated JOLs",1,178,2024-09-09T21:57:06+00:00,3.7929878234863,3,versionB_stim.csv,ReadVersion.csv,Read,Read2,KEYS,ROD,Study1,U,100,85,Test,User,-,,Recall,Recall2,3690,lock,28.571428571429,1627,3400,0,0,,1
M20335622WDl,b2warws0zw,"Mediated JOLs",1,179,2024-09-09T21:57:23+00:00,17.480623006821,3,versionB_stim.csv,ReadVersion.csv,Read,Read2,TUNA,FISH,Study1,F,90,90,Test,User,-,,Recall,Recall2,17369,fish,100,16743,17086,1,1,,0.943
M20335622WDl,b2warws0zw,"Mediated JOLs",1,180,2024-09-09T21:57:29+00:00,5.8878309726715,3,versionB_stim.csv,ReadVersion.csv,Read,Read2,BAT,JUMP,Study1,M,67,83,Test,User,-,,Recall,Recall2,5767,cave,0,3097,5625,0,0,,1
M20335622WDl,b2warws0zw,"Mediated JOLs",1,181,2024-09-09T21:57:32+00:00,3.0340120792389,3,versionB_stim.csv,ReadVersion.csv,Read,Read2,FUZZY,BANG,Study1,U,105,86,Test,User,-,,Recall,Recall2,2932,fluffy,0,1757,2449,0,0,,1
M20335622WDl,b2warws0zw,"Mediated JOLs",1,182,2024-09-09T21:58:46+00:00,73.745311975479,3,versionB_stim.csv,ReadVersion.csv,Read,Read2,CRACKLE,ELECTION,Study1,U,94,80,Test,User,-,,Recall,Recall2,73388,laugh,15.384615384615,72496,73139,0,0,,0.918
M20335622WDl,b2warws0zw,"Mediated JOLs",1,183,2024-09-09T21:58:53+00:00,7.3681421279907,3,versionB_stim.csv,ReadVersion.csv,Read,Read2,STRETCH,CLOTH,Study1,U,92,70,Test,User,-,,Recall,Recall2,7254,loose,40,6212,6726,0,0,,1
M20335622WDl,b2warws0zw,"Mediated JOLs",1,184,2024-09-09T21:58:58+00:00,4.9239439964294,3,versionB_stim.csv,ReadVersion.csv,Read,Read2,HORSE,TIRE,Study1,M,69,91,Test,User,-,,Recall,Recall2,4812,animal,20,2110,4471,0,0,,1
M20335622WDl,b2warws0zw,"Mediated JOLs",1,185,2024-09-09T21:59:00+00:00,2.4071609973907,3,versionB_stim.csv,ReadVersion.csv,Read,Read2,HARD,BALL,Study1,M,75,71,Test,User,-,,Recall,Recall2,2302,soft,0,1809,2184,0,0,,1
M20335622WDl,b2warws0zw,"Mediated JOLs",1,186,2024-09-09T21:59:03+00:00,2.4736549854279,3,versionB_stim.csv,ReadVersion.csv,Read,Read2,WAR,LOUD,Study1,M,63,64,Test,User,-,,Recall,Recall2,2365,machine,0,1460,2175,0,0,,1
M20335622WDl,b2warws0zw,"Mediated JOLs",1,187,2024-09-09T21:59:05+00:00,2.5290679931641,3,versionB_stim.csv,ReadVersion.csv,Read,Read2,DAY,BLACK,Study1,M,73,76,Test,User,-,,Recall,Recall2,2425,night,0,1610,2249,0,0,,1
M20335622WDl,b2warws0zw,"Mediated JOLs",1,188,2024-09-09T21:59:16+00:00,10.906877040863,3,versionB_stim.csv,ReadVersion.csv,Read,Read2,ROUGH,WORM,Study1,M,65,88,Test,User,-,,Recall,Recall2,10797,rug,28.571428571429,9893,10398,0,0,,1
M20335622WDl,b2warws0zw,"Mediated JOLs",1,189,2024-09-09T21:59:19+00:00,2.4376349449158,3,versionB_stim.csv,ReadVersion.csv,Read,Read2,NAP,SLEEP,Study1,F,84,67,Test,User,-,,Recall,Recall2,2323,sleep,100,1549,2078,1,1,,1
M20335622WDl,b2warws0zw,"Mediated JOLs",1,190,2024-09-09T21:59:21+00:00,1.8157598972321,3,versionB_stim.csv,ReadVersion.csv,Read,Read2,SCALP,HEAD,Study1,F,78,105,Test,User,-,,Recall,Recall2,1710,head,100,1310,1603,1,1,,1
M20335622WDl,b2warws0zw,"Mediated JOLs",1,191,2024-09-09T21:59:23+00:00,2.7379331588745,3,versionB_stim.csv,ReadVersion.csv,Read,Read2,GIVE,STEAK,Study1,U,93,75,Test,User,-,,Recall,Recall2,2633,gave,22.222222222222,1738,2079,0,0,,1
M20335622WDl,b2warws0zw,"Mediated JOLs",1,192,2024-09-09T21:59:26+00:00,2.7223169803619,3,versionB_stim.csv,ReadVersion.csv,Read,Read2,VEHICLE,CHARM,Study1,U,95,74,Test,User,-,,Recall,Recall2,2618,car,75,2194,2498,0,1,,1
M20335622WDl,b2warws0zw,"Mediated JOLs",1,193,2024-09-09T21:59:28+00:00,2.1000068187714,3,versionB_stim.csv,ReadVersion.csv,Read,Read2,WORD,SENTENCE,Study1,F,82,63,Test,User,-,,Recall,Recall2,1994,soft,33.333333333333,1454,1874,0,0,,1
M20335622WDl,b2warws0zw,"Mediated JOLs",1,194,2024-09-09T21:59:31+00:00,2.8822422027588,3,versionB_stim.csv,ReadVersion.csv,Read,Read2,TREE,PANCAKES,Study1,M,66,73,Test,User,-,,Recall,Recall2,2778,green,15.384615384615,1703,2434,0,0,,1
M20335622WDl,b2warws0zw,"Mediated JOLs",1,195,2024-09-09T21:59:33+00:00,2.1513669490814,3,versionB_stim.csv,ReadVersion.csv,Read,Read2,SIGN,TICK,Study1,U,102,102,Test,User,-,,Recall,Recall2,2047,stop,25,1278,1784,0,0,,1
M20335622WDl,b2warws0zw,"Mediated JOLs",1,196,2024-09-09T21:59:36+00:00,3.2317109107971,3,versionB_stim.csv,ReadVersion.csv,Read,Read2,LION,FLAG,Study1,M,61,65,Test,User,-,,Recall,Recall2,3130,king,25,1257,2976,0,0,,1
M20335622WDl,b2warws0zw,"Mediated JOLs",1,197,2024-09-09T21:59:38+00:00,2.0625529289246,3,versionB_stim.csv,ReadVersion.csv,Read,Read2,HYGIENE,CLEAN,Study1,F,83,93,Test,User,-,,Recall,Recall2,1958,clean,100,1193,1687,1,1,,1
M20335622WDl,b2warws0zw,"Mediated JOLs",1,198,2024-09-09T21:59:42+00:00,3.4546329975128,3,versionB_stim.csv,ReadVersion.csv,Read,Read2,WAGE,MONEY,Study1,F,77,96,Test,User,-,,Recall,Recall2,3350,money,100,1989,2553,1,1,,1
M20335622WDl,b2warws0zw,"Mediated JOLs",1,199,2024-09-09T21:59:48+00:00,6.1247801780701,3,versionB_stim.csv,ReadVersion.csv,Read,Read2,CAKE,HAND,Study1,U,104,79,Test,User,-,,Recall,Recall2,6013,sweet,0,3168,4368,0,0,,1
M20335622WDl,b2warws0zw,"Mediated JOLs",1,200,2024-09-09T21:59:56+00:00,7.5833840370178,3,versionB_stim.csv,ReadVersion.csv,Read,Read2,LISTEN,FICTION,Study1,U,99,97,Test,User,-,,Recall,Recall2,7482,hear,0,1365,1764,0,0,,1
M20335622WDl,b2warws0zw,"Mediated JOLs",1,201,2024-09-09T22:00:00+00:00,4.0503997802734,3,versionB_stim.csv,ReadVersion.csv,Read,Read2,BEACH,SQUARE,Study1,M,62,100,Test,User,-,,Recall,Recall2,3945,ocean,18.181818181818,1810,2430,0,0,,1
M20335622WDl,b2warws0zw,"Mediated JOLs",1,202,2024-09-09T22:00:57+00:00,57.867431163788,3,versionB_stim.csv,ReadVersion.csv,Read,Read2,WEDDING,HAND,Study1,M,72,94,Test,User,-,,Recall,Recall2,57756,happy,44.444444444444,2386,3104,0,0,,1
M20335622WDl,b2warws0zw,"Mediated JOLs",1,203,2024-09-09T22:01:03+00:00,5.7509038448334,3,versionB_stim.csv,ReadVersion.csv,Read,Read2,TEMPERATURE,MORNING,Study1,U,103,77,Test,User,-,,Recall,Recall2,5633,morning,100,2312,4857,1,1,,1
M20335622WDl,b2warws0zw,"Mediated JOLs",1,204,2024-09-09T22:01:19+00:00,15.998324155807,3,versionB_stim.csv,ReadVersion.csv,Read,Read2,SHELL,SHAKE,Study1,U,98,95,Test,User,-,,Recall,Recall2,15882,pour,0,14929,15564,0,0,,0.45
M20335622WDl,b2warws0zw,"Mediated JOLs",1,205,2024-09-09T22:01:22+00:00,2.7418279647827,3,versionB_stim.csv,ReadVersion.csv,Read,Read2,SWAN,BIRD,Study1,F,81,103,Test,User,-,,Recall,Recall2,2637,lake,0,1941,2424,0,0,,1
M20335622WDl,b2warws0zw,"Mediated JOLs",1,206,2024-09-09T22:01:25+00:00,2.669224023819,3,versionB_stim.csv,ReadVersion.csv,Read,Read2,CIRCLE,FUN,Study1,M,68,82,Test,User,-,,Recall,Recall2,2565,round,50,1387,2212,0,0,,1
M20335622WDl,b2warws0zw,"Mediated JOLs",1,207,2024-09-09T22:01:27+00:00,2.0400218963623,3,versionB_stim.csv,ReadVersion.csv,Read,Read2,CREDIT,CARD,Study1,F,88,66,Test,User,-,,Recall,Recall2,1934,card,100,1209,1746,1,1,,1
M20335622WDl,b2warws0zw,"Mediated JOLs",1,208,2024-09-09T22:01:31+00:00,4.4470021724701,3,versionB_stim.csv,ReadVersion.csv,Read,Read2,MAZE,PHONE,Study1,U,97,81,Test,User,-,,Recall,Recall2,4345,solve,40,2801,3439,0,0,,1
M20335622WDl,b2warws0zw,"Mediated JOLs",1,209,2024-09-09T22:01:33+00:00,2.1948177814484,3,versionB_stim.csv,ReadVersion.csv,Read,Read2,CRY,BEER,Study1,M,71,92,Test,User,-,,Recall,Recall2,2088,tears,44.444444444444,1489,1888,0,0,,1
M20335622WDl,b2warws0zw,"Mediated JOLs",1,210,2024-09-09T22:01:35+00:00,1.9576141834259,3,versionB_stim.csv,ReadVersion.csv,Read,Read2,BIRTHDAY,APPLE,Study1,M,64,69,Test,User,-,,Recall,Recall2,1857,cake,44.444444444444,1342,1714,0,0,,1
M20335622WDl,b2warws0zw,"Mediated JOLs",1,211,2024-09-09T22:01:38+00:00,3.1467180252075,3,versionB_stim.csv,ReadVersion.csv,Read,Read2,,,,,,0,Instruct,User,-,"You have completed this section. Please press Enter.",,Instruct7,3043,,,-1,-1,,,,1
M20335622WDl,b2warws0zw,"Mediated JOLs",1,212,2024-09-09T22:01:40+00:00,1.6701838970184,3,versionB_stim.csv,ReadVersion.csv,Read,Read2,,,,,,0,Instruct,User,-,"The following screen will ask you a few questions abour your experience today. You must complete these questions to receive credit.",,Instruct8,1572,,,-1,-1,,,,1
