Username,ID,ExperimentName,Session,Trial,Date,TimeDif,"Condition Number","Stimuli File","Order File","Condition Description","Condition Notes",Stimuli*Cue,Stimuli*Answer,Stimuli*Shuffle,"Stimuli*Stimuli Notes",Stimuli*Value,Procedure*Item,"Procedure*Trial Type","Procedure*Max Time","Procedure*Min Time",Procedure*Text,"Procedure*Procedure Notes",Procedure*Shuffle,Response*RT,Response*Response,Response*Accuracy,Response*RTfirst,Response*RTlast,Response*strictAcc,Response*lenientAcc,Response*focus,Response*Focus
m20344614_tmw,btcxqi2oc8,"Mediated JOLs",1,1,2024-10-27T21:24:58+00:00,6.1238617897034,1,versionA_stim.csv,ReadVersion.csv,Read,Read1,,,,,,0,Instruct,-,5,"In this section, you will be presented with a series of word pairs. Please study each word pair! Your memory will be tested!",Initial_Instruct,Instruct1,5988,,,-1,-1,,,,1
m20344614_tmw,btcxqi2oc8,"Mediated JOLs",1,2,2024-10-27T21:25:01+00:00,3.1686751842499,1,versionA_stim.csv,ReadVersion.csv,Read,Read1,,,,,,0,Instruct,User,-,"You will now begin. Press Enter when you are ready to begin.",,Instruct16,2942,,,-1,-1,,,,1
m20344614_tmw,btcxqi2oc8,"Mediated JOLs",1,3,2024-10-27T21:25:04+00:00,2.673919916153,1,versionA_stim.csv,ReadVersion.csv,Read,Read1,PITCHER,CATCHER,BUFFER1,Buffer,2,5,Study,User,-,,Study/JOL,BUFFER,2509,,,-1,-1,,,,1
m20344614_tmw,btcxqi2oc8,"Mediated JOLs",1,4,2024-10-27T21:25:05+00:00,1.5203609466553,1,versionA_stim.csv,ReadVersion.csv,Read,Read1,PEANUT,BUTTER,BUFFER1,Buffer,3,3,Study,User,-,,Study/JOL,BUFFER,1359,,,-1,-1,,,,1
m20344614_tmw,btcxqi2oc8,"Mediated JOLs",1,5,2024-10-27T21:25:07+00:00,1.8263700008392,1,versionA_stim.csv,ReadVersion.csv,Read,Read1,SCARE,FRIGHT,BUFFER1,Buffer,4,4,Study,User,-,,Study/JOL,BUFFER,1692,,,-1,-1,,,,1
m20344614_tmw,btcxqi2oc8,"Mediated JOLs",1,6,2024-10-27T21:25:10+00:00,2.9651591777802,1,versionA_stim.csv,ReadVersion.csv,Read,Read1,TREES,GREEN,BUFFER1,Buffer,1,6,Study,User,-,,Study/JOL,BUFFER,2808,,,-1,-1,,,,1
m20344614_tmw,btcxqi2oc8,"Mediated JOLs",1,7,2024-10-27T21:25:12+00:00,1.8399579524994,1,versionA_stim.csv,ReadVersion.csv,Read,Read1,SPACE,JAM,BUFFER1,Buffer,5,2,Study,User,-,,Study/JOL,BUFFER,1642,,,-1,-1,,,,1
m20344614_tmw,btcxqi2oc8,"Mediated JOLs",1,8,2024-10-27T21:25:13+00:00,1.7992079257965,1,versionA_stim.csv,ReadVersion.csv,Read,Read1,WORD,SENTENCE,Study1,F,27,31,Study,User,-,,Study/JOL,"Study Phase",1617,,,-1,-1,,,,1
m20344614_tmw,btcxqi2oc8,"Mediated JOLs",1,9,2024-10-27T21:25:15+00:00,1.9200160503387,1,versionA_stim.csv,ReadVersion.csv,Read,Read1,KEYS,ROD,Study1,U,45,37,Study,User,-,,Study/JOL,"Study Phase",1732,,,-1,-1,,,,1
m20344614_tmw,btcxqi2oc8,"Mediated JOLs",1,10,2024-10-27T21:25:17+00:00,1.7006959915161,1,versionA_stim.csv,ReadVersion.csv,Read,Read1,CAKE,HAND,Study1,U,49,24,Study,User,-,,Study/JOL,"Study Phase",1508,,,-1,-1,,,,1
m20344614_tmw,btcxqi2oc8,"Mediated JOLs",1,11,2024-10-27T21:25:21+00:00,3.9395430088043,1,versionA_stim.csv,ReadVersion.csv,Read,Read1,BAT,JUMP,Study1,M,12,32,Study,User,-,,Study/JOL,"Study Phase",3777,,,-1,-1,,,,1
m20344614_tmw,btcxqi2oc8,"Mediated JOLs",1,12,2024-10-27T21:25:23+00:00,1.6993219852448,1,versionA_stim.csv,ReadVersion.csv,Read,Read1,SIP,DRINK,Study1,F,32,51,Study,User,-,,Study/JOL,"Study Phase",1558,,,-1,-1,,,,1
m20344614_tmw,btcxqi2oc8,"Mediated JOLs",1,13,2024-10-27T21:25:24+00:00,1.5543699264526,1,versionA_stim.csv,ReadVersion.csv,Read,Read1,HARD,BALL,Study1,M,20,50,Study,User,-,,Study/JOL,"Study Phase",1273,,,-1,-1,,,,1
m20344614_tmw,btcxqi2oc8,"Mediated JOLs",1,14,2024-10-27T21:25:27+00:00,2.3407790660858,1,versionA_stim.csv,ReadVersion.csv,Read,Read1,ORCHID,FLOWER,Study1,F,34,16,Study,User,-,,Study/JOL,"Study Phase",2143,,,-1,-1,,,,1
m20344614_tmw,btcxqi2oc8,"Mediated JOLs",1,15,2024-10-27T21:25:29+00:00,1.8653509616852,1,versionA_stim.csv,ReadVersion.csv,Read,Read1,LITTER,TRASH,Study1,F,21,21,Study,User,-,,Study/JOL,"Study Phase",1707,,,-1,-1,,,,1
m20344614_tmw,btcxqi2oc8,"Mediated JOLs",1,16,2024-10-27T21:25:31+00:00,2.5739419460297,1,versionA_stim.csv,ReadVersion.csv,Read,Read1,DAY,BLACK,Study1,M,18,45,Study,User,-,,Study/JOL,"Study Phase",2399,,,-1,-1,,,,1
m20344614_tmw,btcxqi2oc8,"Mediated JOLs",1,17,2024-10-27T21:25:33+00:00,1.7270200252533,1,versionA_stim.csv,ReadVersion.csv,Read,Read1,MEAT,KEYS,Study1,U,41,30,Study,User,-,,Study/JOL,"Study Phase",1519,,,-1,-1,,,,1
m20344614_tmw,btcxqi2oc8,"Mediated JOLs",1,18,2024-10-27T21:25:35+00:00,2.0812621116638,1,versionA_stim.csv,ReadVersion.csv,Read,Read1,STRETCH,CLOTH,Study1,U,37,34,Study,User,-,,Study/JOL,"Study Phase",1907,,,-1,-1,,,,1
m20344614_tmw,btcxqi2oc8,"Mediated JOLs",1,19,2024-10-27T21:25:36+00:00,1.3572008609772,1,versionA_stim.csv,ReadVersion.csv,Read,Read1,HORSE,TIRE,Study1,M,14,23,Study,User,-,,Study/JOL,"Study Phase",1153,,,-1,-1,,,,1
m20344614_tmw,btcxqi2oc8,"Mediated JOLs",1,20,2024-10-27T21:25:38+00:00,1.9552531242371,1,versionA_stim.csv,ReadVersion.csv,Read,Read1,AFFECTION,LOVE,Study1,F,31,13,Study,User,-,,Study/JOL,"Study Phase",1759,,,-1,-1,,,,1
m20344614_tmw,btcxqi2oc8,"Mediated JOLs",1,21,2024-10-27T21:25:40+00:00,2.0500340461731,1,versionA_stim.csv,ReadVersion.csv,Read,Read1,WAGE,MONEY,Study1,F,22,25,Study,User,-,,Study/JOL,"Study Phase",1881,,,-1,-1,,,,1
m20344614_tmw,btcxqi2oc8,"Mediated JOLs",1,22,2024-10-27T21:25:42+00:00,1.991091966629,1,versionA_stim.csv,ReadVersion.csv,Read,Read1,MULE,DONKEY,Study1,F,30,33,Study,User,-,,Study/JOL,"Study Phase",1814,,,-1,-1,,,,1
m20344614_tmw,btcxqi2oc8,"Mediated JOLs",1,23,2024-10-27T21:25:43+00:00,1.1234469413757,1,versionA_stim.csv,ReadVersion.csv,Read,Read1,CRY,BEER,Study1,M,16,48,Study,User,-,,Study/JOL,"Study Phase",961,,,-1,-1,,,,1
m20344614_tmw,btcxqi2oc8,"Mediated JOLs",1,24,2024-10-27T21:25:45+00:00,1.5220410823822,1,versionA_stim.csv,ReadVersion.csv,Read,Read1,ROOT,PLANT,Study1,F,25,40,Study,User,-,,Study/JOL,"Study Phase",1327,,,-1,-1,,,,1
m20344614_tmw,btcxqi2oc8,"Mediated JOLs",1,25,2024-10-27T21:25:46+00:00,1.2818989753723,1,versionA_stim.csv,ReadVersion.csv,Read,Read1,CIRCLE,FUN,Study1,M,13,11,Study,User,-,,Study/JOL,"Study Phase",1101,,,-1,-1,,,,1
m20344614_tmw,btcxqi2oc8,"Mediated JOLs",1,26,2024-10-27T21:25:48+00:00,1.572685956955,1,versionA_stim.csv,ReadVersion.csv,Read,Read1,VEHICLE,CHARM,Study1,U,40,36,Study,User,-,,Study/JOL,"Study Phase",1280,,,-1,-1,,,,1
m20344614_tmw,btcxqi2oc8,"Mediated JOLs",1,27,2024-10-27T21:25:50+00:00,1.7899348735809,1,versionA_stim.csv,ReadVersion.csv,Read,Read1,LION,FLAG,Study1,M,6,9,Study,User,-,,Study/JOL,"Study Phase",1609,,,-1,-1,,,,1
m20344614_tmw,btcxqi2oc8,"Mediated JOLs",1,28,2024-10-27T21:25:51+00:00,1.1933000087738,1,versionA_stim.csv,ReadVersion.csv,Read,Read1,TOOTH,COMB,Study1,M,19,47,Study,User,-,,Study/JOL,"Study Phase",1016,,,-1,-1,,,,1
m20344614_tmw,btcxqi2oc8,"Mediated JOLs",1,29,2024-10-27T21:25:52+00:00,1.2797021865845,1,versionA_stim.csv,ReadVersion.csv,Read,Read1,CEILING,RUG,Study1,M,15,28,Study,User,-,,Study/JOL,"Study Phase",1103,,,-1,-1,,,,1
m20344614_tmw,btcxqi2oc8,"Mediated JOLs",1,30,2024-10-27T21:25:53+00:00,1.3406708240509,1,versionA_stim.csv,ReadVersion.csv,Read,Read1,GIVE,STEAK,Study1,U,38,41,Study,User,-,,Study/JOL,"Study Phase",1188,,,-1,-1,,,,1
m20344614_tmw,btcxqi2oc8,"Mediated JOLs",1,31,2024-10-27T21:25:55+00:00,1.5748701095581,1,versionA_stim.csv,ReadVersion.csv,Read,Read1,SCALP,HEAD,Study1,F,23,42,Study,User,-,,Study/JOL,"Study Phase",1381,,,-1,-1,,,,1
m20344614_tmw,btcxqi2oc8,"Mediated JOLs",1,32,2024-10-27T21:25:56+00:00,1.375746011734,1,versionA_stim.csv,ReadVersion.csv,Read,Read1,SHELL,SHAKE,Study1,U,43,35,Study,User,-,,Study/JOL,"Study Phase",1230,,,-1,-1,,,,1
m20344614_tmw,btcxqi2oc8,"Mediated JOLs",1,33,2024-10-27T21:25:58+00:00,1.5113990306854,1,versionA_stim.csv,ReadVersion.csv,Read,Read1,MIRROR,MAROON,Study1,U,36,29,Study,User,-,,Study/JOL,"Study Phase",1261,,,-1,-1,,,,1
m20344614_tmw,btcxqi2oc8,"Mediated JOLs",1,34,2024-10-27T21:25:59+00:00,1.1926469802856,1,versionA_stim.csv,ReadVersion.csv,Read,Read1,HYGIENE,CLEAN,Study1,F,28,8,Study,User,-,,Study/JOL,"Study Phase",1048,,,-1,-1,,,,1
m20344614_tmw,btcxqi2oc8,"Mediated JOLs",1,35,2024-10-27T21:26:00+00:00,1.1612808704376,1,versionA_stim.csv,ReadVersion.csv,Read,Read1,WEDDING,HAND,Study1,M,17,18,Study,User,-,,Study/JOL,"Study Phase",1007,,,-1,-1,,,,1
m20344614_tmw,btcxqi2oc8,"Mediated JOLs",1,36,2024-10-27T21:26:02+00:00,1.5765371322632,1,versionA_stim.csv,ReadVersion.csv,Read,Read1,BEACH,SQUARE,Study1,M,7,39,Study,User,-,,Study/JOL,"Study Phase",1458,,,-1,-1,,,,1
m20344614_tmw,btcxqi2oc8,"Mediated JOLs",1,37,2024-10-27T21:26:03+00:00,1.3040690422058,1,versionA_stim.csv,ReadVersion.csv,Read,Read1,SOON,BELT,Study1,U,46,38,Study,User,-,,Study/JOL,"Study Phase",1147,,,-1,-1,,,,1
m20344614_tmw,btcxqi2oc8,"Mediated JOLs",1,38,2024-10-27T21:26:19+00:00,15.857126951218,1,versionA_stim.csv,ReadVersion.csv,Read,Read1,CRACKLE,ELECTION,Study1,U,39,20,Study,User,-,,Study/JOL,"Study Phase",15677,,,-1,-1,,,,1
m20344614_tmw,btcxqi2oc8,"Mediated JOLs",1,39,2024-10-27T21:26:20+00:00,1.5543489456177,1,versionA_stim.csv,ReadVersion.csv,Read,Read1,TUNA,FISH,Study1,F,35,27,Study,User,-,,Study/JOL,"Study Phase",1383,,,-1,-1,,,,1
m20344614_tmw,btcxqi2oc8,"Mediated JOLs",1,40,2024-10-27T21:26:22+00:00,1.472806930542,1,versionA_stim.csv,ReadVersion.csv,Read,Read1,LISTEN,FICTION,Study1,U,44,19,Study,User,-,,Study/JOL,"Study Phase",1321,,,-1,-1,,,,1
m20344614_tmw,btcxqi2oc8,"Mediated JOLs",1,41,2024-10-27T21:26:24+00:00,1.6861851215363,1,versionA_stim.csv,ReadVersion.csv,Read,Read1,WAR,LOUD,Study1,M,8,49,Study,User,-,,Study/JOL,"Study Phase",1473,,,-1,-1,,,,1
m20344614_tmw,btcxqi2oc8,"Mediated JOLs",1,42,2024-10-27T21:26:25+00:00,1.3235938549042,1,versionA_stim.csv,ReadVersion.csv,Read,Read1,BIRTHDAY,APPLE,Study1,M,9,15,Study,User,-,,Study/JOL,"Study Phase",1139,,,-1,-1,,,,1
m20344614_tmw,btcxqi2oc8,"Mediated JOLs",1,43,2024-10-27T21:26:26+00:00,1.197466135025,1,versionA_stim.csv,ReadVersion.csv,Read,Read1,MAZE,PHONE,Study1,U,42,10,Study,User,-,,Study/JOL,"Study Phase",1000,,,-1,-1,,,,1
m20344614_tmw,btcxqi2oc8,"Mediated JOLs",1,44,2024-10-27T21:26:27+00:00,1.2102248668671,1,versionA_stim.csv,ReadVersion.csv,Read,Read1,NAP,SLEEP,Study1,F,29,26,Study,User,-,,Study/JOL,"Study Phase",1038,,,-1,-1,,,,1
m20344614_tmw,btcxqi2oc8,"Mediated JOLs",1,45,2024-10-27T21:26:30+00:00,2.5485501289368,1,versionA_stim.csv,ReadVersion.csv,Read,Read1,MULE,DONKEY,Study1,F,24,46,Study,User,-,,Study/JOL,"Study Phase",2382,,,-1,-1,,,,1
m20344614_tmw,btcxqi2oc8,"Mediated JOLs",1,46,2024-10-27T21:26:31+00:00,1.3530700206757,1,versionA_stim.csv,ReadVersion.csv,Read,Read1,FUZZY,BANG,Study1,U,50,7,Study,User,-,,Study/JOL,"Study Phase",1197,,,-1,-1,,,,1
m20344614_tmw,btcxqi2oc8,"Mediated JOLs",1,47,2024-10-27T21:26:35+00:00,4.0772819519043,1,versionA_stim.csv,ReadVersion.csv,Read,Read1,TEMPERATURE,MORNING,Study1,U,48,17,Study,User,-,,Study/JOL,"Study Phase",3887,,,-1,-1,,,,1
m20344614_tmw,btcxqi2oc8,"Mediated JOLs",1,48,2024-10-27T21:26:37+00:00,1.1979250907898,1,versionA_stim.csv,ReadVersion.csv,Read,Read1,CREDIT,CARD,Study1,F,33,44,Study,User,-,,Study/JOL,"Study Phase",1040,,,-1,-1,,,,1
m20344614_tmw,btcxqi2oc8,"Mediated JOLs",1,49,2024-10-27T21:26:38+00:00,1.361035823822,1,versionA_stim.csv,ReadVersion.csv,Read,Read1,TREE,PANCAKES,Study1,M,11,43,Study,User,-,,Study/JOL,"Study Phase",1200,,,-1,-1,,,,1
m20344614_tmw,btcxqi2oc8,"Mediated JOLs",1,50,2024-10-27T21:26:39+00:00,1.061243057251,1,versionA_stim.csv,ReadVersion.csv,Read,Read1,SIGN,TICK,Study1,U,47,14,Study,User,-,,Study/JOL,"Study Phase",885,,,-1,-1,,,,1
m20344614_tmw,btcxqi2oc8,"Mediated JOLs",1,51,2024-10-27T21:26:41+00:00,2.4695861339569,1,versionA_stim.csv,ReadVersion.csv,Read,Read1,ROUGH,WORM,Study1,M,10,12,Study,User,-,,Study/JOL,"Study Phase",2277,,,-1,-1,,,,1
m20344614_tmw,btcxqi2oc8,"Mediated JOLs",1,52,2024-10-27T21:26:43+00:00,1.7622900009155,1,versionA_stim.csv,ReadVersion.csv,Read,Read1,SWAN,BIRD,Study1,F,26,22,Study,User,-,,Study/JOL,"Study Phase",1526,,,-1,-1,,,,1
m20344614_tmw,btcxqi2oc8,"Mediated JOLs",1,53,2024-10-27T21:26:44+00:00,1.1695568561554,1,versionA_stim.csv,ReadVersion.csv,Read,Read1,NOODLE,STRING,BUFFER4,Buffer,107,110,Study,User,-,,Study/JOL,BUFFER2,987,,,-1,-1,,,,1
m20344614_tmw,btcxqi2oc8,"Mediated JOLs",1,54,2024-10-27T21:26:46+00:00,1.2413351535797,1,versionA_stim.csv,ReadVersion.csv,Read,Read1,OCTOBER,SPOOKY,BUFFER3,Buffer,60,61,Study,User,-,,Study/JOL,BUFFER2,1081,,,-1,-1,,,,1
m20344614_tmw,btcxqi2oc8,"Mediated JOLs",1,55,2024-10-27T21:26:47+00:00,1.1821978092194,1,versionA_stim.csv,ReadVersion.csv,Read,Read1,CARROT,POTATO,BUFFER4,Buffer,106,108,Study,User,-,,Study/JOL,BUFFER2,1021,,,-1,-1,,,,1
m20344614_tmw,btcxqi2oc8,"Mediated JOLs",1,56,2024-10-27T21:26:49+00:00,1.7280859947205,1,versionA_stim.csv,ReadVersion.csv,Read,Read1,SHRIMP,FISH,BUFFER4,Buffer,108,109,Study,User,-,,Study/JOL,BUFFER2,1464,,,-1,-1,,,,1
m20344614_tmw,btcxqi2oc8,"Mediated JOLs",1,57,2024-10-27T21:26:50+00:00,1.2865040302277,1,versionA_stim.csv,ReadVersion.csv,Read,Read1,ICE,FROZEN,BUFFER4,Buffer,109,107,Study,User,-,,Study/JOL,BUFFER2,1115,,,-1,-1,,,,1
m20344614_tmw,btcxqi2oc8,"Mediated JOLs",1,58,2024-10-27T21:26:52+00:00,2.600289106369,1,versionA_stim.csv,ReadVersion.csv,Read,Read1,,,,,,0,Instruct,User,-,"You have completed this section. Please press Enter.",Filler_Instruction,Instruct2,2405,,,-1,-1,,,,1
m20344614_tmw,btcxqi2oc8,"Mediated JOLs",1,59,2024-10-27T21:28:53+00:00,120.40162587166,1,versionA_stim.csv,ReadVersion.csv,Read,Read1,,,,,,0,FreeRecall,120,120,"Please list the 50 US states in alphabetical order. The task will automatically advance to the next screen after two minutes.",,Filler1,120021,"alabama alaska arkansal California kansas okalahomnorth carolina south carolina texas virgina ",0,17464,119955,0,0,,1
m20344614_tmw,btcxqi2oc8,"Mediated JOLs",1,60,2024-10-27T21:29:05+00:00,11.909345149994,1,versionA_stim.csv,ReadVersion.csv,Read,Read1,,,,,,0,Instruct,-,10,"You will now be presented with the first word from each of the previously studied item pairs. Please type the missing word. If you do not know the word, you may guess or press Enter to skip forward to the next pair.",,Instruct3,11726,,,-1,-1,,,,1
m20344614_tmw,btcxqi2oc8,"Mediated JOLs",1,61,2024-10-27T21:29:12+00:00,7.3550679683685,1,versionA_stim.csv,ReadVersion.csv,Read,Read1,SIGN,TICK,Study1,U,47,14,Test,User,-,,Recall,Recall1,7139,stop,25,4616,5551,0,0,,1
m20344614_tmw,btcxqi2oc8,"Mediated JOLs",1,62,2024-10-27T21:29:21+00:00,9.0466940402985,1,versionA_stim.csv,ReadVersion.csv,Read,Read1,MEAT,KEYS,Study1,U,41,30,Test,User,-,,Recall,Recall1,8850,sign,25,3800,7596,0,0,,1
m20344614_tmw,btcxqi2oc8,"Mediated JOLs",1,63,2024-10-27T21:29:27+00:00,5.9128198623657,1,versionA_stim.csv,ReadVersion.csv,Read,Read1,SHELL,SHAKE,Study1,U,43,35,Test,User,-,,Recall,Recall1,5741,fish,44.444444444444,3120,4442,0,0,,1
m20344614_tmw,btcxqi2oc8,"Mediated JOLs",1,64,2024-10-27T21:29:33+00:00,6.2348301410675,1,versionA_stim.csv,ReadVersion.csv,Read,Read1,BAT,JUMP,Study1,M,12,32,Test,User,-,,Recall,Recall1,5899,jump,100,2411,3526,1,1,,1
m20344614_tmw,btcxqi2oc8,"Mediated JOLs",1,65,2024-10-27T21:29:38+00:00,4.4968798160553,1,versionA_stim.csv,ReadVersion.csv,Read,Read1,TUNA,FISH,Study1,F,35,27,Test,User,-,,Recall,Recall1,4349,fish,100,1348,2726,1,1,,1
m20344614_tmw,btcxqi2oc8,"Mediated JOLs",1,66,2024-10-27T21:29:43+00:00,5.0423581600189,1,versionA_stim.csv,ReadVersion.csv,Read,Read1,ORCHID,FLOWER,Study1,F,34,16,Test,User,-,,Recall,Recall1,4871,bird,20,2601,3672,0,0,,1
m20344614_tmw,btcxqi2oc8,"Mediated JOLs",1,67,2024-10-27T21:29:48+00:00,4.9514739513397,1,versionA_stim.csv,ReadVersion.csv,Read,Read1,LITTER,TRASH,Study1,F,21,21,Test,User,-,,Recall,Recall1,4791,trash,100,2607,3722,1,1,,1
m20344614_tmw,btcxqi2oc8,"Mediated JOLs",1,68,2024-10-27T21:29:51+00:00,3.7520489692688,1,versionA_stim.csv,ReadVersion.csv,Read,Read1,AFFECTION,LOVE,Study1,F,31,13,Test,User,-,,Recall,Recall1,3601,love,100,1675,2550,1,1,,1
m20344614_tmw,btcxqi2oc8,"Mediated JOLs",1,69,2024-10-27T21:30:02+00:00,10.572892904282,1,versionA_stim.csv,ReadVersion.csv,Read,Read1,BEACH,SQUARE,Study1,M,7,39,Test,User,-,,Recall,Recall1,10418,tree,40,7976,8776,0,0,,1
m20344614_tmw,btcxqi2oc8,"Mediated JOLs",1,70,2024-10-27T21:30:12+00:00,10.198547124863,1,versionA_stim.csv,ReadVersion.csv,Read,Read1,MIRROR,MAROON,Study1,U,36,29,Test,User,-,,Recall,Recall1,10021,store,18.181818181818,7518,8818,0,0,,1
m20344614_tmw,btcxqi2oc8,"Mediated JOLs",1,71,2024-10-27T21:30:19+00:00,6.4691820144653,1,versionA_stim.csv,ReadVersion.csv,Read,Read1,VEHICLE,CHARM,Study1,U,40,36,Test,User,-,,Recall,Recall1,6294,car,75,4293,4754,0,1,,1
m20344614_tmw,btcxqi2oc8,"Mediated JOLs",1,72,2024-10-27T21:30:26+00:00,7.0629789829254,1,versionA_stim.csv,ReadVersion.csv,Read,Read1,CRACKLE,ELECTION,Study1,U,39,20,Test,User,-,,Recall,Recall1,6882,giggle,28.571428571429,3973,5469,0,0,,1
m20344614_tmw,btcxqi2oc8,"Mediated JOLs",1,73,2024-10-27T21:30:35+00:00,9.7022149562836,1,versionA_stim.csv,ReadVersion.csv,Read,Read1,CIRCLE,FUN,Study1,M,13,11,Test,User,-,,Recall,Recall1,9478,motion,22.222222222222,6362,8187,0,0,,1
m20344614_tmw,btcxqi2oc8,"Mediated JOLs",1,74,2024-10-27T21:30:47+00:00,11.651051044464,1,versionA_stim.csv,ReadVersion.csv,Read,Read1,WORD,SENTENCE,Study1,F,27,31,Test,User,-,,Recall,Recall1,11472,sentence,100,7858,10122,1,1,,1
m20344614_tmw,btcxqi2oc8,"Mediated JOLs",1,75,2024-10-27T21:30:58+00:00,11.260859966278,1,versionA_stim.csv,ReadVersion.csv,Read,Read1,CAKE,HAND,Study1,U,49,24,Test,User,-,,Recall,Recall1,11080,dessert,18.181818181818,8259,9717,0,0,,1
m20344614_tmw,btcxqi2oc8,"Mediated JOLs",1,76,2024-10-27T21:31:05+00:00,6.7202079296112,1,versionA_stim.csv,ReadVersion.csv,Read,Read1,KEYS,ROD,Study1,U,45,37,Test,User,-,,Recall,Recall1,6569,car,33.333333333333,4900,5468,0,0,,1
m20344614_tmw,btcxqi2oc8,"Mediated JOLs",1,77,2024-10-27T21:31:11+00:00,6.001317024231,1,versionA_stim.csv,ReadVersion.csv,Read,Read1,HORSE,TIRE,Study1,M,14,23,Test,User,-,,Recall,Recall1,5842,animal,20,2592,4553,0,0,,1
m20344614_tmw,btcxqi2oc8,"Mediated JOLs",1,78,2024-10-27T21:31:20+00:00,9.2039971351624,1,versionA_stim.csv,ReadVersion.csv,Read,Read1,SIP,DRINK,Study1,F,32,51,Test,User,-,,Recall,Recall1,9048,drink,100,2113,6255,1,1,,1
m20344614_tmw,btcxqi2oc8,"Mediated JOLs",1,79,2024-10-27T21:31:27+00:00,6.4353318214417,1,versionA_stim.csv,ReadVersion.csv,Read,Read1,SWAN,BIRD,Study1,F,26,22,Test,User,-,,Recall,Recall1,6250,bird,100,4016,5007,1,1,,1
m20344614_tmw,btcxqi2oc8,"Mediated JOLs",1,80,2024-10-27T21:32:31+00:00,64.548411130905,1,versionA_stim.csv,ReadVersion.csv,Read,Read1,TREE,PANCAKES,Study1,M,11,43,Test,User,-,,Recall,Recall1,64234,outside,13.333333333333,59823,62228,0,0,,1
m20344614_tmw,btcxqi2oc8,"Mediated JOLs",1,81,2024-10-27T21:32:38+00:00,6.8186070919037,1,versionA_stim.csv,ReadVersion.csv,Read,Read1,STRETCH,CLOTH,Study1,U,37,34,Test,User,-,,Recall,Recall1,6604,orchid,36.363636363636,3014,5021,0,0,,1
m20344614_tmw,btcxqi2oc8,"Mediated JOLs",1,82,2024-10-27T21:32:43+00:00,4.8390328884125,1,versionA_stim.csv,ReadVersion.csv,Read,Read1,GIVE,STEAK,Study1,U,38,41,Test,User,-,,Recall,Recall1,4672,take,66.666666666667,1745,3007,0,0,,1
m20344614_tmw,btcxqi2oc8,"Mediated JOLs",1,83,2024-10-27T21:32:50+00:00,7.5247828960419,1,versionA_stim.csv,ReadVersion.csv,Read,Read1,ROOT,PLANT,Study1,F,25,40,Test,User,-,,Recall,Recall1,7381,word,0,4795,5881,0,0,,1
m20344614_tmw,btcxqi2oc8,"Mediated JOLs",1,84,2024-10-27T21:32:57+00:00,6.9347751140594,1,versionA_stim.csv,ReadVersion.csv,Read,Read1,WAR,LOUD,Study1,M,8,49,Test,User,-,,Recall,Recall1,6782,fight,0,3753,5168,0,0,,1
m20344614_tmw,btcxqi2oc8,"Mediated JOLs",1,85,2024-10-27T21:33:05+00:00,7.2700660228729,1,versionA_stim.csv,ReadVersion.csv,Read,Read1,ROUGH,WORM,Study1,M,10,12,Test,User,-,,Recall,Recall1,7088,fight,0,4272,5611,0,0,,1
m20344614_tmw,btcxqi2oc8,"Mediated JOLs",1,86,2024-10-27T21:33:11+00:00,5.926017999649,1,versionA_stim.csv,ReadVersion.csv,Read,Read1,LION,FLAG,Study1,M,6,9,Test,User,-,,Recall,Recall1,5761,love,25,3712,4585,0,0,,1
m20344614_tmw,btcxqi2oc8,"Mediated JOLs",1,87,2024-10-27T21:33:18+00:00,7.0190629959106,1,versionA_stim.csv,ReadVersion.csv,Read,Read1,NAP,SLEEP,Study1,F,29,26,Test,User,-,,Recall,Recall1,6846,sleep,100,2475,4868,1,1,,1
m20344614_tmw,btcxqi2oc8,"Mediated JOLs",1,88,2024-10-27T21:33:28+00:00,10.770874023438,1,versionA_stim.csv,ReadVersion.csv,Read,Read1,MULE,DONKEY,Study1,F,30,33,Test,User,-,,Recall,Recall1,10618,keys,60,2603,9009,0,0,,1
m20344614_tmw,btcxqi2oc8,"Mediated JOLs",1,89,2024-10-27T21:33:36+00:00,7.8430459499359,1,versionA_stim.csv,ReadVersion.csv,Read,Read1,SCALP,HEAD,Study1,F,23,42,Test,User,-,,Recall,Recall1,7669,hair,50,4732,6053,0,0,,1
m20344614_tmw,btcxqi2oc8,"Mediated JOLs",1,90,2024-10-27T21:33:59+00:00,22.23690199852,1,versionA_stim.csv,ReadVersion.csv,Read,Read1,HARD,BALL,Study1,M,20,50,Test,User,-,,Recall,Recall1,22051,push,0,19434,20751,0,0,,1
m20344614_tmw,btcxqi2oc8,"Mediated JOLs",1,91,2024-10-27T21:34:17+00:00,18.490716934204,1,versionA_stim.csv,ReadVersion.csv,Read,Read1,TOOTH,COMB,Study1,M,19,47,Test,User,-,,Recall,Recall1,18321,ache,25,15691,16896,0,0,,1
m20344614_tmw,btcxqi2oc8,"Mediated JOLs",1,92,2024-10-27T21:34:34+00:00,16.943138122559,1,versionA_stim.csv,ReadVersion.csv,Read,Read1,CRY,BEER,Study1,M,16,48,Test,User,-,,Recall,Recall1,16793,puddle,20,12204,15444,0,0,,1
m20344614_tmw,btcxqi2oc8,"Mediated JOLs",1,93,2024-10-27T21:34:40+00:00,6.0368669033051,1,versionA_stim.csv,ReadVersion.csv,Read,Read1,WEDDING,HAND,Study1,M,17,18,Test,User,-,,Recall,Recall1,5852,married,36.363636363636,2375,4437,0,0,,1
m20344614_tmw,btcxqi2oc8,"Mediated JOLs",1,94,2024-10-27T21:34:53+00:00,13.013963937759,1,versionA_stim.csv,ReadVersion.csv,Read,Read1,DAY,BLACK,Study1,M,18,45,Test,User,-,,Recall,Recall1,12791,night,0,2007,4620,0,0,,1
m20344614_tmw,btcxqi2oc8,"Mediated JOLs",1,95,2024-10-27T21:34:58+00:00,5.1650450229645,1,versionA_stim.csv,ReadVersion.csv,Read,Read1,MAZE,PHONE,Study1,U,42,10,Test,User,-,,Recall,Recall1,4996,trap,22.222222222222,2301,3386,0,0,,1
m20344614_tmw,btcxqi2oc8,"Mediated JOLs",1,96,2024-10-27T21:35:02+00:00,4.1795260906219,1,versionA_stim.csv,ReadVersion.csv,Read,Read1,BIRTHDAY,APPLE,Study1,M,9,15,Test,User,-,,Recall,Recall1,4031,fun,0,2106,2773,0,0,,1
m20344614_tmw,btcxqi2oc8,"Mediated JOLs",1,97,2024-10-27T21:35:11+00:00,8.1871600151062,1,versionA_stim.csv,ReadVersion.csv,Read,Read1,FUZZY,BANG,Study1,U,50,7,Test,User,-,,Recall,Recall1,8015,animal,40,2859,6765,0,0,,1
m20344614_tmw,btcxqi2oc8,"Mediated JOLs",1,98,2024-10-27T21:35:16+00:00,5.6600968837738,1,versionA_stim.csv,ReadVersion.csv,Read,Read1,MULE,DONKEY,Study1,F,24,46,Test,User,-,,Recall,Recall1,5476,keys,60,2690,4070,0,0,,1
m20344614_tmw,btcxqi2oc8,"Mediated JOLs",1,99,2024-10-27T21:35:28+00:00,11.566627979279,1,versionA_stim.csv,ReadVersion.csv,Read,Read1,WAGE,MONEY,Study1,F,22,25,Test,User,-,,Recall,Recall1,11370,money,100,5894,7473,1,1,,1
m20344614_tmw,btcxqi2oc8,"Mediated JOLs",1,100,2024-10-27T21:35:34+00:00,6.1329622268677,1,versionA_stim.csv,ReadVersion.csv,Read,Read1,CREDIT,CARD,Study1,F,33,44,Test,User,-,,Recall,Recall1,5966,debit,22.222222222222,2360,5417,0,0,,1
m20344614_tmw,btcxqi2oc8,"Mediated JOLs",1,101,2024-10-27T21:35:39+00:00,4.6537737846375,1,versionA_stim.csv,ReadVersion.csv,Read,Read1,HYGIENE,CLEAN,Study1,F,28,8,Test,User,-,,Recall,Recall1,4471,clean,100,2060,3873,1,1,,1
m20344614_tmw,btcxqi2oc8,"Mediated JOLs",1,102,2024-10-27T21:35:45+00:00,6.7023870944977,1,versionA_stim.csv,ReadVersion.csv,Read,Read1,LISTEN,FICTION,Study1,U,44,19,Test,User,-,,Recall,Recall1,6532,talk,18.181818181818,1918,6058,0,0,,1
m20344614_tmw,btcxqi2oc8,"Mediated JOLs",1,103,2024-10-27T21:35:52+00:00,7.1369709968567,1,versionA_stim.csv,ReadVersion.csv,Read,Read1,TEMPERATURE,MORNING,Study1,U,48,17,Test,User,-,,Recall,Recall1,6936,cool,18.181818181818,5392,6450,0,0,,1
m20344614_tmw,btcxqi2oc8,"Mediated JOLs",1,104,2024-10-27T21:36:06+00:00,13.28898692131,1,versionA_stim.csv,ReadVersion.csv,Read,Read1,SOON,BELT,Study1,U,46,38,Test,User,-,,Recall,Recall1,13102,leave,22.222222222222,11009,12628,0,0,,1
m20344614_tmw,btcxqi2oc8,"Mediated JOLs",1,105,2024-10-27T21:36:09+00:00,3.5343899726868,1,versionA_stim.csv,ReadVersion.csv,Read,Read1,CEILING,RUG,Study1,M,15,28,Test,User,-,,Recall,Recall1,3318,fan,0,2053,2831,0,0,,1
m20344614_tmw,btcxqi2oc8,"Mediated JOLs",1,106,2024-10-27T21:36:35+00:00,25.467716217041,1,versionA_stim.csv,ReadVersion.csv,Read,Read1,,,,,,0,Instruct,-,10,"You will now be presented with a new set of word pairs. Please study each pair. Remember that your memory will be tested! When finished, press Enter to move to the next pair.",Initial_Instruct,Instruct4,25304,,,-1,-1,,,,1
m20344614_tmw,btcxqi2oc8,"Mediated JOLs",1,107,2024-10-27T21:36:42+00:00,7.1241548061371,1,versionA_stim.csv,ReadVersion.csv,Read,Read1,,,,,,0,Instruct,User,-,"Press Enter when you are readty to begin",,Instruct11,6929,,,-1,-1,,,,1
m20344614_tmw,btcxqi2oc8,"Mediated JOLs",1,108,2024-10-27T21:36:46+00:00,4.1146240234375,1,versionA_stim.csv,ReadVersion.csv,Read,Read1,GEESE,GOOSE,BUFFER2,Buffer,51,53,Study,User,-,,Study/JOL,BUFFER2,3926,,,-1,-1,,,,1
m20344614_tmw,btcxqi2oc8,"Mediated JOLs",1,109,2024-10-27T21:36:52+00:00,5.9261090755463,1,versionA_stim.csv,ReadVersion.csv,Read,Read1,DAYS,WEAKS,BUFFER3,Buffer,56,57,Study,User,-,,Study/JOL,BUFFER2,5757,,,-1,-1,,,,1
m20344614_tmw,btcxqi2oc8,"Mediated JOLs",1,110,2024-10-27T21:37:07+00:00,15.595500946045,1,versionA_stim.csv,ReadVersion.csv,Read,Read1,SPRING,MARCH,BUFFER3,Buffer,59,59,Study,User,-,,Study/JOL,BUFFER2,15384,,,-1,-1,,,,1
m20344614_tmw,btcxqi2oc8,"Mediated JOLs",1,111,2024-10-27T21:37:10+00:00,2.1092090606689,1,versionA_stim.csv,ReadVersion.csv,Read,Read1,MOON,SPACE,BUFFER2,Buffer,54,52,Study,User,-,,Study/JOL,BUFFER2,1929,,,-1,-1,,,,1
m20344614_tmw,btcxqi2oc8,"Mediated JOLs",1,112,2024-10-27T21:37:13+00:00,3.7720060348511,1,versionA_stim.csv,ReadVersion.csv,Read,Read1,CAMP,ADVENTURE,BUFFER4,Buffer,110,111,Study,User,-,,Study/JOL,BUFFER2,3579,,,-1,-1,,,,1
m20344614_tmw,btcxqi2oc8,"Mediated JOLs",1,113,2024-10-27T21:37:18+00:00,4.2500369548798,1,versionA_stim.csv,ReadVersion.csv,Read,Read1,DIETARY,SACK,Study2,U,97,89,Study,User,-,,Study/JOL,"Study Phase2",4096,,,-1,-1,,,,1
m20344614_tmw,btcxqi2oc8,"Mediated JOLs",1,114,2024-10-27T21:37:20+00:00,2.3907248973846,1,versionA_stim.csv,ReadVersion.csv,Read,Read1,CHOP,CUT,Study2,F,77,95,Study,User,-,,Study/JOL,"Study Phase2",2208,,,-1,-1,,,,1
m20344614_tmw,btcxqi2oc8,"Mediated JOLs",1,115,2024-10-27T21:37:23+00:00,3.0404050350189,1,versionA_stim.csv,ReadVersion.csv,Read,Read1,HAPPY,CAR,Study2,U,92,85,Study,User,-,,Study/JOL,"Study Phase2",2876,,,-1,-1,,,,1
m20344614_tmw,btcxqi2oc8,"Mediated JOLs",1,116,2024-10-27T21:37:27+00:00,3.8091320991516,1,versionA_stim.csv,ReadVersion.csv,Read,Read1,BRIDGE,WATER,Study2,F,90,84,Study,User,-,,Study/JOL,"Study Phase2",3625,,,-1,-1,,,,1
m20344614_tmw,btcxqi2oc8,"Mediated JOLs",1,117,2024-10-27T21:37:30+00:00,3.0373959541321,1,versionA_stim.csv,ReadVersion.csv,Read,Read1,REALITY,WATER,Study2,M,64,66,Study,User,-,,Study/JOL,"Study Phase2",2885,,,-1,-1,,,,1
m20344614_tmw,btcxqi2oc8,"Mediated JOLs",1,118,2024-10-27T21:37:33+00:00,2.8802869319916,1,versionA_stim.csv,ReadVersion.csv,Read,Read1,CHERRY,RED,Study2,F,80,101,Study,User,-,,Study/JOL,"Study Phase2",2682,,,-1,-1,,,,1
m20344614_tmw,btcxqi2oc8,"Mediated JOLs",1,119,2024-10-27T21:37:35+00:00,2.6681301593781,1,versionA_stim.csv,ReadVersion.csv,Read,Read1,ARTERY,BRONZE,Study2,U,103,68,Study,User,-,,Study/JOL,"Study Phase2",2458,,,-1,-1,,,,1
m20344614_tmw,btcxqi2oc8,"Mediated JOLs",1,120,2024-10-27T21:37:38+00:00,2.7189829349518,1,versionA_stim.csv,ReadVersion.csv,Read,Read1,CACTUS,PLANT,Study2,F,76,91,Study,User,-,,Study/JOL,"Study Phase2",2542,,,-1,-1,,,,1
m20344614_tmw,btcxqi2oc8,"Mediated JOLs",1,121,2024-10-27T21:37:40+00:00,2.2791569232941,1,versionA_stim.csv,ReadVersion.csv,Read,Read1,ART,WOLF,Study2,U,93,80,Study,User,-,,Study/JOL,"Study Phase2",2094,,,-1,-1,,,,1
m20344614_tmw,btcxqi2oc8,"Mediated JOLs",1,122,2024-10-27T21:37:42+00:00,2.0349841117859,1,versionA_stim.csv,ReadVersion.csv,Read,Read1,DOCUMENT,PAPER,Study2,F,82,97,Study,User,-,,Study/JOL,"Study Phase2",1829,,,-1,-1,,,,1
m20344614_tmw,btcxqi2oc8,"Mediated JOLs",1,123,2024-10-27T21:37:45+00:00,2.2788848876953,1,versionA_stim.csv,ReadVersion.csv,Read,Read1,FEUD,FIGHT,Study2,F,86,105,Study,User,-,,Study/JOL,"Study Phase2",2099,,,-1,-1,,,,1
m20344614_tmw,btcxqi2oc8,"Mediated JOLs",1,124,2024-10-27T21:37:47+00:00,2.4811451435089,1,versionA_stim.csv,ReadVersion.csv,Read,Read1,RAKE,PLANT,Study2,M,69,83,Study,User,-,,Study/JOL,"Study Phase2",2309,,,-1,-1,,,,1
m20344614_tmw,btcxqi2oc8,"Mediated JOLs",1,125,2024-10-27T21:37:50+00:00,2.692831993103,1,versionA_stim.csv,ReadVersion.csv,Read,Read1,SCHOOL,SIGN,Study2,M,62,96,Study,User,-,,Study/JOL,"Study Phase2",2292,,,-1,-1,,,,1
m20344614_tmw,btcxqi2oc8,"Mediated JOLs",1,126,2024-10-27T21:37:52+00:00,2.4791278839111,1,versionA_stim.csv,ReadVersion.csv,Read,Read1,PUSH,CLUTTER,Study2,U,96,92,Study,User,-,,Study/JOL,"Study Phase2",2265,,,-1,-1,,,,1
m20344614_tmw,btcxqi2oc8,"Mediated JOLs",1,127,2024-10-27T21:37:54+00:00,2.1530201435089,1,versionA_stim.csv,ReadVersion.csv,Read,Read1,ATTIRE,CLOTHES,Study2,F,79,88,Study,User,-,,Study/JOL,"Study Phase2",1946,,,-1,-1,,,,1
m20344614_tmw,btcxqi2oc8,"Mediated JOLs",1,128,2024-10-27T21:37:58+00:00,3.353935956955,1,versionA_stim.csv,ReadVersion.csv,Read,Read1,GRILL,LEG,Study2,M,72,71,Study,User,-,,Study/JOL,"Study Phase2",3175,,,-1,-1,,,,1
m20344614_tmw,btcxqi2oc8,"Mediated JOLs",1,129,2024-10-27T21:38:02+00:00,4.5269210338593,1,versionA_stim.csv,ReadVersion.csv,Read,Read1,SICK,HIDE,Study2,U,100,90,Study,User,-,,Study/JOL,"Study Phase2",4355,,,-1,-1,,,,1
m20344614_tmw,btcxqi2oc8,"Mediated JOLs",1,130,2024-10-27T21:38:05+00:00,2.3189837932587,1,versionA_stim.csv,ReadVersion.csv,Read,Read1,HEAVY,BIRD,Study2,M,68,102,Study,User,-,,Study/JOL,"Study Phase2",2129,,,-1,-1,,,,1
m20344614_tmw,btcxqi2oc8,"Mediated JOLs",1,131,2024-10-27T21:38:07+00:00,2.2460100650787,1,versionA_stim.csv,ReadVersion.csv,Read,Read1,PANTS,DOG,Study2,M,63,100,Study,User,-,,Study/JOL,"Study Phase2",2063,,,-1,-1,,,,1
m20344614_tmw,btcxqi2oc8,"Mediated JOLs",1,132,2024-10-27T21:38:09+00:00,2.354434967041,1,versionA_stim.csv,ReadVersion.csv,Read,Read1,HORNET,STING,Study2,F,85,94,Study,User,-,,Study/JOL,"Study Phase2",2157,,,-1,-1,,,,1
m20344614_tmw,btcxqi2oc8,"Mediated JOLs",1,133,2024-10-27T21:38:12+00:00,2.6978511810303,1,versionA_stim.csv,ReadVersion.csv,Read,Read1,DEATH,BUSINESS,Study2,U,99,77,Study,User,-,,Study/JOL,"Study Phase2",2507,,,-1,-1,,,,1
m20344614_tmw,btcxqi2oc8,"Mediated JOLs",1,134,2024-10-27T21:38:14+00:00,2.1079759597778,1,versionA_stim.csv,ReadVersion.csv,Read,Read1,INCENSE,SMELL,Study2,F,83,74,Study,User,-,,Study/JOL,"Study Phase2",1911,,,-1,-1,,,,1
m20344614_tmw,btcxqi2oc8,"Mediated JOLs",1,135,2024-10-27T21:38:17+00:00,2.5949268341064,1,versionA_stim.csv,ReadVersion.csv,Read,Read1,HERD,COW,Study2,F,88,82,Study,User,-,,Study/JOL,"Study Phase2",2375,,,-1,-1,,,,1
m20344614_tmw,btcxqi2oc8,"Mediated JOLs",1,136,2024-10-27T21:38:20+00:00,3.2014820575714,1,versionA_stim.csv,ReadVersion.csv,Read,Read1,LEASE,TOIL,Study2,U,101,62,Study,User,-,,Study/JOL,"Study Phase2",2994,,,-1,-1,,,,1
m20344614_tmw,btcxqi2oc8,"Mediated JOLs",1,137,2024-10-27T21:38:22+00:00,2.3204159736633,1,versionA_stim.csv,ReadVersion.csv,Read,Read1,BOTH,OUNCE,Study2,U,102,87,Study,User,-,,Study/JOL,"Study Phase2",2154,,,-1,-1,,,,1
m20344614_tmw,btcxqi2oc8,"Mediated JOLs",1,138,2024-10-27T21:38:25+00:00,2.6073770523071,1,versionA_stim.csv,ReadVersion.csv,Read,Read1,SUGAR,RIDDLE,Study2,U,95,106,Study,User,-,,Study/JOL,"Study Phase2",2273,,,-1,-1,,,,1
m20344614_tmw,btcxqi2oc8,"Mediated JOLs",1,139,2024-10-27T21:38:27+00:00,1.9540960788727,1,versionA_stim.csv,ReadVersion.csv,Read,Read1,WINDOW,HANDLE,Study2,M,74,81,Study,User,-,,Study/JOL,"Study Phase2",1794,,,-1,-1,,,,1
m20344614_tmw,btcxqi2oc8,"Mediated JOLs",1,140,2024-10-27T21:38:29+00:00,2.1228568553925,1,versionA_stim.csv,ReadVersion.csv,Read,Read1,VALLEY,TOP,Study2,M,73,67,Study,User,-,,Study/JOL,"Study Phase2",1745,,,-1,-1,,,,1
m20344614_tmw,btcxqi2oc8,"Mediated JOLs",1,141,2024-10-27T21:38:31+00:00,1.9231431484222,1,versionA_stim.csv,ReadVersion.csv,Read,Read1,KING,VASE,Study2,U,91,78,Study,User,-,,Study/JOL,"Study Phase2",1698,,,-1,-1,,,,1
m20344614_tmw,btcxqi2oc8,"Mediated JOLs",1,142,2024-10-27T21:38:33+00:00,2.008945941925,1,versionA_stim.csv,ReadVersion.csv,Read,Read1,SUMMER,WHITE,Study2,M,61,63,Study,User,-,,Study/JOL,"Study Phase2",1863,,,-1,-1,,,,1
m20344614_tmw,btcxqi2oc8,"Mediated JOLs",1,143,2024-10-27T21:38:37+00:00,4.0224289894104,1,versionA_stim.csv,ReadVersion.csv,Read,Read1,SOAP,THIRST,Study2,M,67,93,Study,User,-,,Study/JOL,"Study Phase2",3829,,,-1,-1,,,,1
m20344614_tmw,btcxqi2oc8,"Mediated JOLs",1,144,2024-10-27T21:38:39+00:00,2.072781085968,1,versionA_stim.csv,ReadVersion.csv,Read,Read1,CHILL,COLD,Study2,F,87,70,Study,User,-,,Study/JOL,"Study Phase2",1883,,,-1,-1,,,,1
m20344614_tmw,btcxqi2oc8,"Mediated JOLs",1,145,2024-10-27T21:38:41+00:00,2.0793659687042,1,versionA_stim.csv,ReadVersion.csv,Read,Read1,MIRROR,CHILDREN,Study2,U,104,104,Study,User,-,,Study/JOL,"Study Phase2",1898,,,-1,-1,,,,1
m20344614_tmw,btcxqi2oc8,"Mediated JOLs",1,146,2024-10-27T21:38:43+00:00,1.5734989643097,1,versionA_stim.csv,ReadVersion.csv,Read,Read1,TRAP,MAN,Study2,M,70,69,Study,User,-,,Study/JOL,"Study Phase2",1407,,,-1,-1,,,,1
m20344614_tmw,btcxqi2oc8,"Mediated JOLs",1,147,2024-10-27T21:38:45+00:00,2.7550599575043,1,versionA_stim.csv,ReadVersion.csv,Read,Read1,WASP,BUG,Study2,F,89,76,Study,User,-,,Study/JOL,"Study Phase2",2559,,,-1,-1,,,,1
m20344614_tmw,btcxqi2oc8,"Mediated JOLs",1,148,2024-10-27T21:38:48+00:00,2.5356690883636,1,versionA_stim.csv,ReadVersion.csv,Read,Read1,CHISEL,HAMMER,Study2,F,78,98,Study,User,-,,Study/JOL,"Study Phase2",2343,,,-1,-1,,,,1
m20344614_tmw,btcxqi2oc8,"Mediated JOLs",1,149,2024-10-27T21:38:50+00:00,1.9760320186615,1,versionA_stim.csv,ReadVersion.csv,Read,Read1,OVEN,WEAVE,Study2,M,71,103,Study,User,-,,Study/JOL,"Study Phase2",1801,,,-1,-1,,,,1
m20344614_tmw,btcxqi2oc8,"Mediated JOLs",1,150,2024-10-27T21:38:53+00:00,2.8223450183868,1,versionA_stim.csv,ReadVersion.csv,Read,Read1,CASH,LEG,Study2,U,105,73,Study,User,-,,Study/JOL,"Study Phase2",2650,,,-1,-1,,,,1
m20344614_tmw,btcxqi2oc8,"Mediated JOLs",1,151,2024-10-27T21:38:56+00:00,3.2325630187988,1,versionA_stim.csv,ReadVersion.csv,Read,Read1,RAZOR,ARM,Study2,M,75,72,Study,User,-,,Study/JOL,"Study Phase2",3065,,,-1,-1,,,,1
m20344614_tmw,btcxqi2oc8,"Mediated JOLs",1,152,2024-10-27T21:38:58+00:00,2.3137009143829,1,versionA_stim.csv,ReadVersion.csv,Read,Read1,STRONG,ACCIDENT,Study2,U,94,99,Study,User,-,,Study/JOL,"Study Phase2",2116,,,-1,-1,,,,1
m20344614_tmw,btcxqi2oc8,"Mediated JOLs",1,153,2024-10-27T21:39:00+00:00,2.047474861145,1,versionA_stim.csv,ReadVersion.csv,Read,Read1,NURSE,COURT,Study2,M,66,86,Study,User,-,,Study/JOL,"Study Phase2",1834,,,-1,-1,,,,1
m20344614_tmw,btcxqi2oc8,"Mediated JOLs",1,154,2024-10-27T21:39:02+00:00,1.629940032959,1,versionA_stim.csv,ReadVersion.csv,Read,Read1,BLAZE,FIRE,Study2,F,81,79,Study,User,-,,Study/JOL,"Study Phase2",1442,,,-1,-1,,,,1
m20344614_tmw,btcxqi2oc8,"Mediated JOLs",1,155,2024-10-27T21:39:04+00:00,1.7944049835205,1,versionA_stim.csv,ReadVersion.csv,Read,Read1,EYES,TASTE,Study2,M,65,65,Study,User,-,,Study/JOL,"Study Phase2",1608,,,-1,-1,,,,1
m20344614_tmw,btcxqi2oc8,"Mediated JOLs",1,156,2024-10-27T21:39:06+00:00,2.2617521286011,1,versionA_stim.csv,ReadVersion.csv,Read,Read1,BENCH,HORN,Study2,U,98,64,Study,User,-,,Study/JOL,"Study Phase2",2033,,,-1,-1,,,,1
m20344614_tmw,btcxqi2oc8,"Mediated JOLs",1,157,2024-10-27T21:39:08+00:00,2.1198899745941,1,versionA_stim.csv,ReadVersion.csv,Read,Read1,LEAGUE,BASEBALL,Study2,F,84,75,Study,User,-,,Study/JOL,"Study Phase2",1946,,,-1,-1,,,,1
m20344614_tmw,btcxqi2oc8,"Mediated JOLs",1,158,2024-10-27T21:39:10+00:00,1.6258111000061,1,versionA_stim.csv,ReadVersion.csv,Read,Read1,MONTH,YEAR,BUFFER3,Buffer,57,60,Study,User,-,,Study/JOL,BUFFER2,1443,,,-1,-1,,,,1
m20344614_tmw,btcxqi2oc8,"Mediated JOLs",1,159,2024-10-27T21:39:12+00:00,1.8953068256378,1,versionA_stim.csv,ReadVersion.csv,Read,Read1,THING,STUFF,BUFFER2,Buffer,55,55,Study,User,-,,Study/JOL,BUFFER2,1726,,,-1,-1,,,,1
m20344614_tmw,btcxqi2oc8,"Mediated JOLs",1,160,2024-10-27T21:39:13+00:00,1.7820279598236,1,versionA_stim.csv,ReadVersion.csv,Read,Read1,SHERRIF,POLICE,BUFFER2,Buffer,52,54,Study,User,-,,Study/JOL,BUFFER2,1605,,,-1,-1,,,,1
m20344614_tmw,btcxqi2oc8,"Mediated JOLs",1,161,2024-10-27T21:39:15+00:00,1.8814890384674,1,versionA_stim.csv,ReadVersion.csv,Read,Read1,TOOL,SHED,BUFFER3,Buffer,58,58,Study,User,-,,Study/JOL,BUFFER2,1706,,,-1,-1,,,,1
m20344614_tmw,btcxqi2oc8,"Mediated JOLs",1,162,2024-10-27T21:39:17+00:00,1.7939879894257,1,versionA_stim.csv,ReadVersion.csv,Read,Read1,MALT,CHOCOLATE,BUFFER2,Buffer,53,56,Study,User,-,,Study/JOL,BUFFER2,1611,,,-1,-1,,,,1
m20344614_tmw,btcxqi2oc8,"Mediated JOLs",1,163,2024-10-27T21:39:19+00:00,1.8004591464996,1,versionA_stim.csv,ReadVersion.csv,Read,Read1,,,,,,0,Instruct,User,-,"You have completed this section. Please press Enter.",Filler_Instruction,Instruct2,1615,,,-1,-1,,,,1
m20344614_tmw,btcxqi2oc8,"Mediated JOLs",1,164,2024-10-27T21:41:19+00:00,120.62812900543,1,versionA_stim.csv,ReadVersion.csv,Read,Read1,,,,,,0,FreeRecall,120,120,"Please list the 50 US states in alphabetical order. The task will automatically advance to the next screen after two minutes.",,Filler1,120026,"alabama alaska arkansal california Idaho illinos hawaii kanasa Oklahoma orgean new jnorth carolina main south carolina texas virgina wyoming",0,6164,119229,0,0,,0.996
m20344614_tmw,btcxqi2oc8,"Mediated JOLs",1,165,2024-10-27T21:41:57+00:00,37.156617879868,1,versionA_stim.csv,ReadVersion.csv,Read,Read1,,,,,,0,Instruct,-,10,"You will now be presented with the first word from each of the previously studied item pairs. Please type the missing word. If you do not know the word, you may guess or press Enter to skip forward to the next pair.",,Instruct3,36826,,,-1,-1,,,,1
m20344614_tmw,btcxqi2oc8,"Mediated JOLs",1,166,2024-10-27T21:42:03+00:00,6.0417749881744,1,versionA_stim.csv,ReadVersion.csv,Read,Read1,CHERRY,RED,Study2,F,80,101,Test,User,-,,Recall,Recall2,5860,red,100,4041,4421,1,1,,1
m20344614_tmw,btcxqi2oc8,"Mediated JOLs",1,167,2024-10-27T21:42:08+00:00,5.0412690639496,1,versionA_stim.csv,ReadVersion.csv,Read,Read1,SCHOOL,SIGN,Study2,M,62,96,Test,User,-,,Recall,Recall2,4745,sign,100,2188,3482,1,1,,1
m20344614_tmw,btcxqi2oc8,"Mediated JOLs",1,168,2024-10-27T21:42:13+00:00,5.2992808818817,1,versionA_stim.csv,ReadVersion.csv,Read,Read1,CHOP,CUT,Study2,F,77,95,Test,User,-,,Recall,Recall2,5166,cut,100,2962,3597,1,1,,1
m20344614_tmw,btcxqi2oc8,"Mediated JOLs",1,169,2024-10-27T21:42:21+00:00,7.6524481773376,1,versionA_stim.csv,ReadVersion.csv,Read,Read1,CASH,LEG,Study2,U,105,73,Test,User,-,,Recall,Recall2,7477,money,25,4883,6306,0,0,,1
m20344614_tmw,btcxqi2oc8,"Mediated JOLs",1,170,2024-10-27T21:42:38+00:00,17.122855901718,1,versionA_stim.csv,ReadVersion.csv,Read,Read1,SICK,HIDE,Study2,U,100,90,Test,User,-,,Recall,Recall2,16971,ounce,22.222222222222,14224,15552,0,0,,1
m20344614_tmw,btcxqi2oc8,"Mediated JOLs",1,171,2024-10-27T21:42:44+00:00,6.5538399219513,1,versionA_stim.csv,ReadVersion.csv,Read,Read1,BRIDGE,WATER,Study2,F,90,84,Test,User,-,,Recall,Recall2,6358,hold,0,4022,4990,0,0,,1
m20344614_tmw,btcxqi2oc8,"Mediated JOLs",1,172,2024-10-27T21:42:49+00:00,4.1967241764069,1,versionA_stim.csv,ReadVersion.csv,Read,Read1,CHILL,COLD,Study2,F,87,70,Test,User,-,,Recall,Recall2,3986,cold,100,1972,2935,1,1,,1
m20344614_tmw,btcxqi2oc8,"Mediated JOLs",1,173,2024-10-27T21:43:15+00:00,26.926252841949,1,versionA_stim.csv,ReadVersion.csv,Read,Read1,HERD,COW,Study2,F,88,82,Test,User,-,,Recall,Recall2,26749,cattle,22.222222222222,20305,24632,0,0,,1
m20344614_tmw,btcxqi2oc8,"Mediated JOLs",1,174,2024-10-27T21:43:23+00:00,7.6351201534271,1,versionA_stim.csv,ReadVersion.csv,Read,Read1,ART,WOLF,Study2,U,93,80,Test,User,-,,Recall,Recall2,7443,nice,0,4651,6000,0,0,,1
m20344614_tmw,btcxqi2oc8,"Mediated JOLs",1,175,2024-10-27T21:43:29+00:00,5.9553198814392,1,versionA_stim.csv,ReadVersion.csv,Read,Read1,EYES,TASTE,Study2,M,65,65,Test,User,-,,Recall,Recall2,5758,2,0,4636,4637,0,0,,1
m20344614_tmw,btcxqi2oc8,"Mediated JOLs",1,176,2024-10-27T21:43:37+00:00,8.28755402565,1,versionA_stim.csv,ReadVersion.csv,Read,Read1,KING,VASE,Study2,U,91,78,Test,User,-,,Recall,Recall2,8070,royal,22.222222222222,5104,6848,0,0,,1
m20344614_tmw,btcxqi2oc8,"Mediated JOLs",1,177,2024-10-27T21:43:42+00:00,4.2774510383606,1,versionA_stim.csv,ReadVersion.csv,Read,Read1,SOAP,THIRST,Study2,M,67,93,Test,User,-,,Recall,Recall2,4059,clean,0,1988,3600,0,0,,1
m20344614_tmw,btcxqi2oc8,"Mediated JOLs",1,178,2024-10-27T21:43:48+00:00,6.7066690921783,1,versionA_stim.csv,ReadVersion.csv,Read,Read1,GRILL,LEG,Study2,M,72,71,Test,User,-,,Recall,Recall2,6480,leg,100,4424,5266,1,1,,1
m20344614_tmw,btcxqi2oc8,"Mediated JOLs",1,179,2024-10-27T21:44:00+00:00,11.536520004272,1,versionA_stim.csv,ReadVersion.csv,Read,Read1,WINDOW,HANDLE,Study2,M,74,81,Test,User,-,,Recall,Recall2,11352,handle,100,7480,10041,1,1,,1
m20344614_tmw,btcxqi2oc8,"Mediated JOLs",1,180,2024-10-27T21:44:07+00:00,6.950945854187,1,versionA_stim.csv,ReadVersion.csv,Read,Read1,ARTERY,BRONZE,Study2,U,103,68,Test,User,-,,Recall,Recall2,6704,heart,18.181818181818,2744,4016,0,0,,1
m20344614_tmw,btcxqi2oc8,"Mediated JOLs",1,181,2024-10-27T21:44:15+00:00,8.5255990028381,1,versionA_stim.csv,ReadVersion.csv,Read,Read1,MIRROR,CHILDREN,Study2,U,104,104,Test,User,-,,Recall,Recall2,8299,wall,16.666666666667,5716,6957,0,0,,1
m20344614_tmw,btcxqi2oc8,"Mediated JOLs",1,182,2024-10-27T21:44:22+00:00,7.1476011276245,1,versionA_stim.csv,ReadVersion.csv,Read,Read1,STRONG,ACCIDENT,Study2,U,94,99,Test,User,-,,Recall,Recall2,6979,weak,16.666666666667,2815,5768,0,0,,1
m20344614_tmw,btcxqi2oc8,"Mediated JOLs",1,183,2024-10-27T21:44:27+00:00,4.5717430114746,1,versionA_stim.csv,ReadVersion.csv,Read,Read1,BOTH,OUNCE,Study2,U,102,87,Test,User,-,,Recall,Recall2,4408,ounce,100,1526,3030,1,1,,1
m20344614_tmw,btcxqi2oc8,"Mediated JOLs",1,184,2024-10-27T21:44:40+00:00,13.119462966919,1,versionA_stim.csv,ReadVersion.csv,Read,Read1,RAKE,PLANT,Study2,M,69,83,Test,User,-,,Recall,Recall2,12924,move,0,7701,9854,0,0,,1
m20344614_tmw,btcxqi2oc8,"Mediated JOLs",1,185,2024-10-27T21:44:45+00:00,5.2854838371277,1,versionA_stim.csv,ReadVersion.csv,Read,Read1,SUGAR,RIDDLE,Study2,U,95,106,Test,User,-,,Recall,Recall2,5099,sweet,18.181818181818,3118,3910,0,0,,1
m20344614_tmw,btcxqi2oc8,"Mediated JOLs",1,186,2024-10-27T21:44:56+00:00,10.39049911499,1,versionA_stim.csv,ReadVersion.csv,Read,Read1,DIETARY,SACK,Study2,U,97,89,Test,User,-,,Recall,Recall2,10176,food,0,8053,8929,0,0,,1
m20344614_tmw,btcxqi2oc8,"Mediated JOLs",1,187,2024-10-27T21:45:04+00:00,8.0894160270691,1,versionA_stim.csv,ReadVersion.csv,Read,Read1,DOCUMENT,PAPER,Study2,F,82,97,Test,User,-,,Recall,Recall2,7909,paper,100,2709,4293,1,1,,1
m20344614_tmw,btcxqi2oc8,"Mediated JOLs",1,188,2024-10-27T21:45:10+00:00,5.9449908733368,1,versionA_stim.csv,ReadVersion.csv,Read,Read1,CACTUS,PLANT,Study2,F,76,91,Test,User,-,,Recall,Recall2,5767,plant,100,2897,4414,1,1,,1
m20344614_tmw,btcxqi2oc8,"Mediated JOLs",1,189,2024-10-27T21:45:24+00:00,13.843950033188,1,versionA_stim.csv,ReadVersion.csv,Read,Read1,VALLEY,TOP,Study2,M,73,67,Test,User,-,,Recall,Recall2,13677,peak,28.571428571429,10850,12291,0,0,,1
m20344614_tmw,btcxqi2oc8,"Mediated JOLs",1,190,2024-10-27T21:45:29+00:00,5.7342219352722,1,versionA_stim.csv,ReadVersion.csv,Read,Read1,CHISEL,HAMMER,Study2,F,78,98,Test,User,-,,Recall,Recall2,5508,chest,36.363636363636,2453,3690,0,0,,1
m20344614_tmw,btcxqi2oc8,"Mediated JOLs",1,191,2024-10-27T21:45:34+00:00,4.9593780040741,1,versionA_stim.csv,ReadVersion.csv,Read,Read1,NURSE,COURT,Study2,M,66,86,Test,User,-,,Recall,Recall2,4818,aid,0,1942,2903,0,0,,1
m20344614_tmw,btcxqi2oc8,"Mediated JOLs",1,192,2024-10-27T21:45:41+00:00,6.4730191230774,1,versionA_stim.csv,ReadVersion.csv,Read,Read1,PANTS,DOG,Study2,M,63,100,Test,User,-,,Recall,Recall2,6307,fire,0,3605,4588,0,0,,1
m20344614_tmw,btcxqi2oc8,"Mediated JOLs",1,193,2024-10-27T21:45:47+00:00,6.4680759906769,1,versionA_stim.csv,ReadVersion.csv,Read,Read1,REALITY,WATER,Study2,M,64,66,Test,User,-,,Recall,Recall2,6286,fake,44.444444444444,3230,4650,0,0,,1
m20344614_tmw,btcxqi2oc8,"Mediated JOLs",1,194,2024-10-27T21:45:53+00:00,5.1273789405823,1,versionA_stim.csv,ReadVersion.csv,Read,Read1,ATTIRE,CLOTHES,Study2,F,79,88,Test,User,-,,Recall,Recall2,4865,clothes,100,1793,3617,1,1,,1
m20344614_tmw,btcxqi2oc8,"Mediated JOLs",1,195,2024-10-27T21:45:57+00:00,4.1942310333252,1,versionA_stim.csv,ReadVersion.csv,Read,Read1,FEUD,FIGHT,Study2,F,86,105,Test,User,-,,Recall,Recall2,3968,fight,100,1685,2910,1,1,,1
m20344614_tmw,btcxqi2oc8,"Mediated JOLs",1,196,2024-10-27T21:46:07+00:00,10.438873052597,1,versionA_stim.csv,ReadVersion.csv,Read,Read1,HEAVY,BIRD,Study2,M,68,102,Test,User,-,,Recall,Recall2,10248,weight,20,2440,8781,0,0,,1
m20344614_tmw,btcxqi2oc8,"Mediated JOLs",1,197,2024-10-27T21:46:12+00:00,4.7433989048004,1,versionA_stim.csv,ReadVersion.csv,Read,Read1,HAPPY,CAR,Study2,U,92,85,Test,User,-,,Recall,Recall2,4593,car,100,2978,3564,1,1,,1
m20344614_tmw,btcxqi2oc8,"Mediated JOLs",1,198,2024-10-27T21:46:20+00:00,7.6329431533813,1,versionA_stim.csv,ReadVersion.csv,Read,Read1,INCENSE,SMELL,Study2,F,83,74,Test,User,-,,Recall,Recall2,7454,smell,100,3327,5027,1,1,,1
m20344614_tmw,btcxqi2oc8,"Mediated JOLs",1,199,2024-10-27T21:46:23+00:00,3.9436678886414,1,versionA_stim.csv,ReadVersion.csv,Read,Read1,LEASE,TOIL,Study2,U,101,62,Test,User,-,,Recall,Recall2,3801,car,0,2217,2682,0,0,,1
m20344614_tmw,btcxqi2oc8,"Mediated JOLs",1,200,2024-10-27T21:46:33+00:00,9.983206987381,1,versionA_stim.csv,ReadVersion.csv,Read,Read1,SUMMER,WHITE,Study2,M,61,63,Test,User,-,,Recall,Recall2,9790,sun,0,7813,8518,0,0,,1
m20344614_tmw,btcxqi2oc8,"Mediated JOLs",1,201,2024-10-27T21:46:40+00:00,6.4691050052643,1,versionA_stim.csv,ReadVersion.csv,Read,Read1,HORNET,STING,Study2,F,85,94,Test,User,-,,Recall,Recall2,6282,sting,100,3715,5148,1,1,,1
m20344614_tmw,btcxqi2oc8,"Mediated JOLs",1,202,2024-10-27T21:46:49+00:00,9.0943410396576,1,versionA_stim.csv,ReadVersion.csv,Read,Read1,OVEN,WEAVE,Study2,M,71,103,Test,User,-,,Recall,Recall2,8945,heat,44.444444444444,6918,7819,0,0,,1
m20344614_tmw,btcxqi2oc8,"Mediated JOLs",1,203,2024-10-27T21:47:06+00:00,16.664802074432,1,versionA_stim.csv,ReadVersion.csv,Read,Read1,TRAP,MAN,Study2,M,70,69,Test,User,-,,Recall,Recall2,16456,parent,44.444444444444,10968,12737,0,0,,1
m20344614_tmw,btcxqi2oc8,"Mediated JOLs",1,204,2024-10-27T21:47:15+00:00,8.8907008171082,1,versionA_stim.csv,ReadVersion.csv,Read,Read1,PUSH,CLUTTER,Study2,U,96,92,Test,User,-,,Recall,Recall2,8645,shove,16.666666666667,5681,7056,0,0,,1
m20344614_tmw,btcxqi2oc8,"Mediated JOLs",1,205,2024-10-27T21:47:24+00:00,9.3073961734772,1,versionA_stim.csv,ReadVersion.csv,Read,Read1,LEAGUE,BASEBALL,Study2,F,84,75,Test,User,-,,Recall,Recall2,9114,up,0,2970,3318,0,0,,1
m20344614_tmw,btcxqi2oc8,"Mediated JOLs",1,206,2024-10-27T21:47:30+00:00,6.4132769107819,1,versionA_stim.csv,ReadVersion.csv,Read,Read1,RAZOR,ARM,Study2,M,75,72,Test,User,-,,Recall,Recall2,6238,arm,100,2309,4900,1,1,,1
m20344614_tmw,btcxqi2oc8,"Mediated JOLs",1,207,2024-10-27T21:47:35+00:00,4.7219800949097,1,versionA_stim.csv,ReadVersion.csv,Read,Read1,BLAZE,FIRE,Study2,F,81,79,Test,User,-,,Recall,Recall2,4545,fire,100,2421,3252,1,1,,1
m20344614_tmw,btcxqi2oc8,"Mediated JOLs",1,208,2024-10-27T21:47:43+00:00,7.6619348526001,1,versionA_stim.csv,ReadVersion.csv,Read,Read1,WASP,BUG,Study2,F,89,76,Test,User,-,,Recall,Recall2,7432,sting,25,2856,6132,0,0,,1
m20344614_tmw,btcxqi2oc8,"Mediated JOLs",1,209,2024-10-27T21:47:48+00:00,5.7760679721832,1,versionA_stim.csv,ReadVersion.csv,Read,Read1,BENCH,HORN,Study2,U,98,64,Test,User,-,,Recall,Recall2,5606,leg,0,3316,4385,0,0,,1
m20344614_tmw,btcxqi2oc8,"Mediated JOLs",1,210,2024-10-27T21:48:02+00:00,13.878825187683,1,versionA_stim.csv,ReadVersion.csv,Read,Read1,DEATH,BUSINESS,Study2,U,99,77,Test,User,-,,Recall,Recall2,13685,court,15.384615384615,6789,9383,0,0,,1
m20344614_tmw,btcxqi2oc8,"Mediated JOLs",1,211,2024-10-27T21:48:04+00:00,1.5122380256653,1,versionA_stim.csv,ReadVersion.csv,Read,Read1,,,,,,0,Instruct,User,-,"You have completed this section. Please press Enter.",,Instruct7,1260,,,-1,-1,,,,1
m20344614_tmw,btcxqi2oc8,"Mediated JOLs",1,212,2024-10-27T21:48:14+00:00,10.210795879364,1,versionA_stim.csv,ReadVersion.csv,Read,Read1,,,,,,0,Instruct,User,-,"The following screen will ask you a few questions abour your experience today. You must complete these questions to receive credit.",,Instruct8,9995,,,-1,-1,,,,1
