Username,ID,ExperimentName,Session,Trial,Date,TimeDif,"Condition Number","Stimuli File","Order File","Condition Description","Condition Notes",Stimuli*Cue,Stimuli*Answer,Stimuli*Shuffle,"Stimuli*Stimuli Notes",Stimuli*Value,Procedure*Item,"Procedure*Trial Type","Procedure*Max Time","Procedure*Min Time",Procedure*Text,"Procedure*Procedure Notes",Procedure*Shuffle,Response*RT,Response*Response,Response*Accuracy,Response*RTfirst,Response*RTlast,Response*strictAcc,Response*lenientAcc,Response*focus,Response*Focus
10140033VDC,nriegoihyz,"Mediated JOLs",1,1,2024-11-25T04:18:32+00:00,12.347212791443,3,versionB_stim.csv,ReadVersion.csv,Read,Read2,,,,,,0,Instruct,-,5,"In this section, you will be presented with a series of word pairs. Please study each word pair! Your memory will be tested!",Initial_Instruct,Instruct1,12059,,,-1,-1,,,,1
10140033VDC,nriegoihyz,"Mediated JOLs",1,2,2024-11-25T04:18:43+00:00,10.91980099678,3,versionB_stim.csv,ReadVersion.csv,Read,Read2,,,,,,0,Instruct,User,-,"You will now begin. Press Enter when you are ready to begin.",,Instruct16,9942,,,-1,-1,,,,1
10140033VDC,nriegoihyz,"Mediated JOLs",1,3,2024-11-25T04:18:50+00:00,7.1305410861969,3,versionB_stim.csv,ReadVersion.csv,Read,Read2,DAYS,WEAKS,BUFFER3,Buffer,1,6,Study,User,-,,Study/JOL,BUFFER,5972,,,-1,-1,,,,1
10140033VDC,nriegoihyz,"Mediated JOLs",1,4,2024-11-25T04:18:56+00:00,5.9607019424438,3,versionB_stim.csv,ReadVersion.csv,Read,Read2,SPRING,MARCH,BUFFER3,Buffer,4,4,Study,User,-,,Study/JOL,BUFFER,5531,,,-1,-1,,,,1
10140033VDC,nriegoihyz,"Mediated JOLs",1,5,2024-11-25T04:18:59+00:00,2.7557811737061,3,versionB_stim.csv,ReadVersion.csv,Read,Read2,MONTH,YEAR,BUFFER3,Buffer,2,2,Study,User,-,,Study/JOL,BUFFER,2008,,,-1,-1,,,,1
10140033VDC,nriegoihyz,"Mediated JOLs",1,6,2024-11-25T04:19:01+00:00,2.6876368522644,3,versionB_stim.csv,ReadVersion.csv,Read,Read2,TOOL,SHED,BUFFER3,Buffer,3,3,Study,User,-,,Study/JOL,BUFFER,2261,,,-1,-1,,,,1
10140033VDC,nriegoihyz,"Mediated JOLs",1,7,2024-11-25T04:19:04+00:00,3.2218351364136,3,versionB_stim.csv,ReadVersion.csv,Read,Read2,OCTOBER,SPOOKY,BUFFER3,Buffer,5,5,Study,User,-,,Study/JOL,BUFFER,2888,,,-1,-1,,,,1
10140033VDC,nriegoihyz,"Mediated JOLs",1,8,2024-11-25T04:19:10+00:00,5.1108849048615,3,versionB_stim.csv,ReadVersion.csv,Read,Read2,INCENSE,SMELL,Study2,F,28,18,Study,User,-,,Study/JOL,"Study Phase",4888,,,-1,-1,,,,1
10140033VDC,nriegoihyz,"Mediated JOLs",1,9,2024-11-25T04:19:13+00:00,3.6041350364685,3,versionB_stim.csv,ReadVersion.csv,Read,Read2,FEUD,FIGHT,Study2,F,31,27,Study,User,-,,Study/JOL,"Study Phase",2869,,,-1,-1,,,,1
10140033VDC,nriegoihyz,"Mediated JOLs",1,10,2024-11-25T04:19:16+00:00,2.987725019455,3,versionB_stim.csv,ReadVersion.csv,Read,Read2,BENCH,HORN,Study2,U,43,48,Study,User,-,,Study/JOL,"Study Phase",2137,,,-1,-1,,,,1
10140033VDC,nriegoihyz,"Mediated JOLs",1,11,2024-11-25T04:19:19+00:00,3.0700678825378,3,versionB_stim.csv,ReadVersion.csv,Read,Read2,CASH,LEG,Study2,U,50,41,Study,User,-,,Study/JOL,"Study Phase",2027,,,-1,-1,,,,1
10140033VDC,nriegoihyz,"Mediated JOLs",1,12,2024-11-25T04:19:24+00:00,4.4038281440735,3,versionB_stim.csv,ReadVersion.csv,Read,Read2,BRIDGE,WATER,Study2,F,35,19,Study,User,-,,Study/JOL,"Study Phase",1859,,,-1,-1,,,,1
10140033VDC,nriegoihyz,"Mediated JOLs",1,13,2024-11-25T04:19:28+00:00,4.2212970256805,3,versionB_stim.csv,ReadVersion.csv,Read,Read2,STRONG,ACCIDENT,Study2,U,39,33,Study,User,-,,Study/JOL,"Study Phase",3129,,,-1,-1,,,,1
10140033VDC,nriegoihyz,"Mediated JOLs",1,14,2024-11-25T04:19:32+00:00,4.180431842804,3,versionB_stim.csv,ReadVersion.csv,Read,Read2,HERD,COW,Study2,F,33,45,Study,User,-,,Study/JOL,"Study Phase",3112,,,-1,-1,,,,1
10140033VDC,nriegoihyz,"Mediated JOLs",1,15,2024-11-25T04:19:35+00:00,3.284499168396,3,versionB_stim.csv,ReadVersion.csv,Read,Read2,CACTUS,PLANT,Study2,F,21,37,Study,User,-,,Study/JOL,"Study Phase",2505,,,-1,-1,,,,1
10140033VDC,nriegoihyz,"Mediated JOLs",1,16,2024-11-25T04:19:38+00:00,3.0995628833771,3,versionB_stim.csv,ReadVersion.csv,Read,Read2,ATTIRE,CLOTHES,Study2,F,24,9,Study,User,-,,Study/JOL,"Study Phase",2283,,,-1,-1,,,,1
10140033VDC,nriegoihyz,"Mediated JOLs",1,17,2024-11-25T04:19:43+00:00,4.5877780914307,3,versionB_stim.csv,ReadVersion.csv,Read,Read2,COURT,NURSE,Study2,M,11,22,Study,User,-,,Study/JOL,"Study Phase",3856,,,-1,-1,,,,1
10140033VDC,nriegoihyz,"Mediated JOLs",1,18,2024-11-25T04:19:48+00:00,4.5447199344635,3,versionB_stim.csv,ReadVersion.csv,Read,Read2,ARTERY,BRONZE,Study2,U,48,36,Study,User,-,,Study/JOL,"Study Phase",3995,,,-1,-1,,,,1
10140033VDC,nriegoihyz,"Mediated JOLs",1,19,2024-11-25T04:19:52+00:00,4.437381029129,3,versionB_stim.csv,ReadVersion.csv,Read,Read2,CHERRY,RED,Study2,F,25,23,Study,User,-,,Study/JOL,"Study Phase",3309,,,-1,-1,,,,1
10140033VDC,nriegoihyz,"Mediated JOLs",1,20,2024-11-25T04:19:58+00:00,5.7219760417938,3,versionB_stim.csv,ReadVersion.csv,Read,Read2,DEATH,BUSINESS,Study2,U,44,25,Study,User,-,,Study/JOL,"Study Phase",5152,,,-1,-1,,,,1
10140033VDC,nriegoihyz,"Mediated JOLs",1,21,2024-11-25T04:20:03+00:00,4.8480470180511,3,versionB_stim.csv,ReadVersion.csv,Read,Read2,LEG,GRILL,Study2,M,17,39,Study,User,-,,Study/JOL,"Study Phase",4016,,,-1,-1,,,,1
10140033VDC,nriegoihyz,"Mediated JOLs",1,22,2024-11-25T04:20:05+00:00,2.3967268466949,3,versionB_stim.csv,ReadVersion.csv,Read,Read2,MIRROR,CHILDREN,Study2,U,49,32,Study,User,-,,Study/JOL,"Study Phase",1742,,,-1,-1,,,,1
10140033VDC,nriegoihyz,"Mediated JOLs",1,23,2024-11-25T04:20:09+00:00,3.9635300636292,3,versionB_stim.csv,ReadVersion.csv,Read,Read2,WATER,REALITY,Study2,M,9,26,Study,User,-,,Study/JOL,"Study Phase",3245,,,-1,-1,,,,1
10140033VDC,nriegoihyz,"Mediated JOLs",1,24,2024-11-25T04:20:12+00:00,3.120668888092,3,versionB_stim.csv,ReadVersion.csv,Read,Read2,HANDLE,WINDOW,Study2,M,19,7,Study,User,-,,Study/JOL,"Study Phase",2666,,,-1,-1,,,,1
10140033VDC,nriegoihyz,"Mediated JOLs",1,25,2024-11-25T04:20:19+00:00,7.1694800853729,3,versionB_stim.csv,ReadVersion.csv,Read,Read2,PLANT,RAKE,Study2,M,14,29,Study,User,-,,Study/JOL,"Study Phase",6547,,,-1,-1,,,,1
10140033VDC,nriegoihyz,"Mediated JOLs",1,26,2024-11-25T04:20:23+00:00,3.7313089370728,3,versionB_stim.csv,ReadVersion.csv,Read,Read2,KING,VASE,Study2,U,36,49,Study,User,-,,Study/JOL,"Study Phase",3210,,,-1,-1,,,,1
10140033VDC,nriegoihyz,"Mediated JOLs",1,27,2024-11-25T04:20:28+00:00,4.636157989502,3,versionB_stim.csv,ReadVersion.csv,Read,Read2,SICK,HIDE,Study2,U,45,35,Study,User,-,,Study/JOL,"Study Phase",4354,,,-1,-1,,,,1
10140033VDC,nriegoihyz,"Mediated JOLs",1,28,2024-11-25T04:20:32+00:00,4.6722600460052,3,versionB_stim.csv,ReadVersion.csv,Read,Read2,HORNET,STING,Study2,F,30,42,Study,User,-,,Study/JOL,"Study Phase",3738,,,-1,-1,,,,1
10140033VDC,nriegoihyz,"Mediated JOLs",1,29,2024-11-25T04:20:36+00:00,3.7528059482574,3,versionB_stim.csv,ReadVersion.csv,Read,Read2,DIETARY,SACK,Study2,U,42,21,Study,User,-,,Study/JOL,"Study Phase",2949,,,-1,-1,,,,1
10140033VDC,nriegoihyz,"Mediated JOLs",1,30,2024-11-25T04:20:39+00:00,2.544988155365,3,versionB_stim.csv,ReadVersion.csv,Read,Read2,PUSH,CLUTTER,Study2,U,41,43,Study,User,-,,Study/JOL,"Study Phase",1688,,,-1,-1,,,,1
10140033VDC,nriegoihyz,"Mediated JOLs",1,31,2024-11-25T04:20:42+00:00,3.8380630016327,3,versionB_stim.csv,ReadVersion.csv,Read,Read2,WHITE,SUMMER,Study2,M,6,17,Study,User,-,,Study/JOL,"Study Phase",2853,,,-1,-1,,,,1
10140033VDC,nriegoihyz,"Mediated JOLs",1,32,2024-11-25T04:20:47+00:00,4.3064298629761,3,versionB_stim.csv,ReadVersion.csv,Read,Read2,DOG,PANTS,Study2,M,8,46,Study,User,-,,Study/JOL,"Study Phase",3404,,,-1,-1,,,,1
10140033VDC,nriegoihyz,"Mediated JOLs",1,33,2024-11-25T04:20:50+00:00,2.8621311187744,3,versionB_stim.csv,ReadVersion.csv,Read,Read2,BOTH,OUNCE,Study2,U,47,40,Study,User,-,,Study/JOL,"Study Phase",1747,,,-1,-1,,,,1
10140033VDC,nriegoihyz,"Mediated JOLs",1,34,2024-11-25T04:20:52+00:00,2.5628998279572,3,versionB_stim.csv,ReadVersion.csv,Read,Read2,SUGAR,RIDDLE,Study2,U,40,51,Study,User,-,,Study/JOL,"Study Phase",1594,,,-1,-1,,,,1
10140033VDC,nriegoihyz,"Mediated JOLs",1,35,2024-11-25T04:20:58+00:00,6.0185670852661,3,versionB_stim.csv,ReadVersion.csv,Read,Read2,SIGN,SCHOOL,Study2,M,7,38,Study,User,-,,Study/JOL,"Study Phase",4812,,,-1,-1,,,,1
10140033VDC,nriegoihyz,"Mediated JOLs",1,36,2024-11-25T04:21:01+00:00,2.8625469207764,3,versionB_stim.csv,ReadVersion.csv,Read,Read2,THIRST,SOAP,Study2,M,12,34,Study,User,-,,Study/JOL,"Study Phase",2235,,,-1,-1,,,,1
10140033VDC,nriegoihyz,"Mediated JOLs",1,37,2024-11-25T04:21:05+00:00,3.5216200351715,3,versionB_stim.csv,ReadVersion.csv,Read,Read2,CHILL,COLD,Study2,F,32,24,Study,User,-,,Study/JOL,"Study Phase",2688,,,-1,-1,,,,1
10140033VDC,nriegoihyz,"Mediated JOLs",1,38,2024-11-25T04:21:08+00:00,3.7742371559143,3,versionB_stim.csv,ReadVersion.csv,Read,Read2,TOP,VALLEY,Study2,M,18,15,Study,User,-,,Study/JOL,"Study Phase",2388,,,-1,-1,,,,1
10140033VDC,nriegoihyz,"Mediated JOLs",1,39,2024-11-25T04:21:12+00:00,3.2402949333191,3,versionB_stim.csv,ReadVersion.csv,Read,Read2,WASP,BUG,Study2,F,34,14,Study,User,-,,Study/JOL,"Study Phase",1963,,,-1,-1,,,,1
10140033VDC,nriegoihyz,"Mediated JOLs",1,40,2024-11-25T04:21:15+00:00,3.1339390277863,3,versionB_stim.csv,ReadVersion.csv,Read,Read2,CHOP,CUT,Study2,F,22,30,Study,User,-,,Study/JOL,"Study Phase",2078,,,-1,-1,,,,1
10140033VDC,nriegoihyz,"Mediated JOLs",1,41,2024-11-25T04:21:17+00:00,2.1948029994965,3,versionB_stim.csv,ReadVersion.csv,Read,Read2,HAPPY,CAR,Study2,U,37,20,Study,User,-,,Study/JOL,"Study Phase",1472,,,-1,-1,,,,1
10140033VDC,nriegoihyz,"Mediated JOLs",1,42,2024-11-25T04:21:25+00:00,8.0718760490417,3,versionB_stim.csv,ReadVersion.csv,Read,Read2,LEAGUE,BASEBALL,Study2,F,29,11,Study,User,-,,Study/JOL,"Study Phase",7295,,,-1,-1,,,,1
10140033VDC,nriegoihyz,"Mediated JOLs",1,43,2024-11-25T04:21:29+00:00,4.4312889575958,3,versionB_stim.csv,ReadVersion.csv,Read,Read2,WEAVE,OVEN,Study2,M,16,16,Study,User,-,,Study/JOL,"Study Phase",2971,,,-1,-1,,,,1
10140033VDC,nriegoihyz,"Mediated JOLs",1,44,2024-11-25T04:21:33+00:00,3.8329629898071,3,versionB_stim.csv,ReadVersion.csv,Read,Read2,BLAZE,FIRE,Study2,F,26,8,Study,User,-,,Study/JOL,"Study Phase",2031,,,-1,-1,,,,1
10140033VDC,nriegoihyz,"Mediated JOLs",1,45,2024-11-25T04:21:36+00:00,2.6590340137482,3,versionB_stim.csv,ReadVersion.csv,Read,Read2,BIRD,HEAVY,Study2,M,13,13,Study,User,-,,Study/JOL,"Study Phase",2170,,,-1,-1,,,,1
10140033VDC,nriegoihyz,"Mediated JOLs",1,46,2024-11-25T04:21:43+00:00,6.6431589126587,3,versionB_stim.csv,ReadVersion.csv,Read,Read2,DOCUMENT,PAPER,Study2,F,27,10,Study,User,-,,Study/JOL,"Study Phase",5705,,,-1,-1,,,,1
10140033VDC,nriegoihyz,"Mediated JOLs",1,47,2024-11-25T04:21:45+00:00,2.284646987915,3,versionB_stim.csv,ReadVersion.csv,Read,Read2,ART,WOLF,Study2,U,38,12,Study,User,-,,Study/JOL,"Study Phase",1971,,,-1,-1,,,,1
10140033VDC,nriegoihyz,"Mediated JOLs",1,48,2024-11-25T04:21:50+00:00,5.6207370758057,3,versionB_stim.csv,ReadVersion.csv,Read,Read2,ARM,RAZOR,Study2,M,20,50,Study,User,-,,Study/JOL,"Study Phase",4758,,,-1,-1,,,,1
10140033VDC,nriegoihyz,"Mediated JOLs",1,49,2024-11-25T04:21:58+00:00,7.8631720542908,3,versionB_stim.csv,ReadVersion.csv,Read,Read2,MAN,TRAP,Study2,M,15,47,Study,User,-,,Study/JOL,"Study Phase",7154,,,-1,-1,,,,1
10140033VDC,nriegoihyz,"Mediated JOLs",1,50,2024-11-25T04:22:01+00:00,3.051570892334,3,versionB_stim.csv,ReadVersion.csv,Read,Read2,LEASE,TOIL,Study2,U,46,31,Study,User,-,,Study/JOL,"Study Phase",2507,,,-1,-1,,,,1
10140033VDC,nriegoihyz,"Mediated JOLs",1,51,2024-11-25T04:22:04+00:00,3.041825056076,3,versionB_stim.csv,ReadVersion.csv,Read,Read2,CHISEL,HAMMER,Study2,F,23,28,Study,User,-,,Study/JOL,"Study Phase",1908,,,-1,-1,,,,1
10140033VDC,nriegoihyz,"Mediated JOLs",1,52,2024-11-25T04:22:07+00:00,2.5689258575439,3,versionB_stim.csv,ReadVersion.csv,Read,Read2,TASTE,EYES,Study2,M,10,44,Study,User,-,,Study/JOL,"Study Phase",1546,,,-1,-1,,,,1
10140033VDC,nriegoihyz,"Mediated JOLs",1,53,2024-11-25T04:22:10+00:00,3.3010671138763,3,versionB_stim.csv,ReadVersion.csv,Read,Read2,SPACE,JAM,BUFFER1,Buffer,60,57,Study,User,-,,Study/JOL,BUFFER2,2077,,,-1,-1,,,,1
10140033VDC,nriegoihyz,"Mediated JOLs",1,54,2024-11-25T04:22:14+00:00,3.7099928855896,3,versionB_stim.csv,ReadVersion.csv,Read,Read2,MALT,CHOCOLATE,BUFFER2,Buffer,108,110,Study,User,-,,Study/JOL,BUFFER2,2423,,,-1,-1,,,,1
10140033VDC,nriegoihyz,"Mediated JOLs",1,55,2024-11-25T04:22:18+00:00,4.3504991531372,3,versionB_stim.csv,ReadVersion.csv,Read,Read2,ICE,FROZEN,BUFFER4,Buffer,54,55,Study,User,-,,Study/JOL,BUFFER2,3174,,,-1,-1,,,,1
10140033VDC,nriegoihyz,"Mediated JOLs",1,56,2024-11-25T04:22:24+00:00,5.5828609466553,3,versionB_stim.csv,ReadVersion.csv,Read,Read2,THING,STUFF,BUFFER2,Buffer,110,107,Study,User,-,,Study/JOL,BUFFER2,5178,,,-1,-1,,,,1
10140033VDC,nriegoihyz,"Mediated JOLs",1,57,2024-11-25T04:22:37+00:00,13.315279006958,3,versionB_stim.csv,ReadVersion.csv,Read,Read2,PEANUT,BUTTER,BUFFER1,Buffer,58,60,Study,User,-,,Study/JOL,BUFFER2,12450,,,-1,-1,,,,1
10140033VDC,nriegoihyz,"Mediated JOLs",1,58,2024-11-25T04:22:43+00:00,5.7900459766388,3,versionB_stim.csv,ReadVersion.csv,Read,Read2,,,,,,0,Instruct,User,-,"You have completed this section. Please press Enter.",Filler_Instruction,Instruct2,5492,,,-1,-1,,,,1
10140033VDC,nriegoihyz,"Mediated JOLs",1,59,2024-11-25T04:24:44+00:00,121.44504094124,3,versionB_stim.csv,ReadVersion.csv,Read,Read2,,,,,,0,FreeRecall,120,120,"Please list the 50 US states in alphabetical order. The task will automatically advance to the next screen after two minutes.",,Filler1,120002,"Alabama ",0,23063,103236,0,0,,1
10140033VDC,nriegoihyz,"Mediated JOLs",1,60,2024-11-25T04:25:02+00:00,17.474189996719,3,versionB_stim.csv,ReadVersion.csv,Read,Read2,,,,,,0,Instruct,-,10,"You will now be presented with the first word from each of the previously studied item pairs. Please type the missing word. If you do not know the word, you may guess or press Enter to skip forward to the next pair.",,Instruct3,15407,,,-1,-1,,,,1
10140033VDC,nriegoihyz,"Mediated JOLs",1,61,2024-11-25T04:26:37+00:00,94.587054014206,3,versionB_stim.csv,ReadVersion.csv,Read,Read2,COURT,NURSE,Study2,M,11,22,Test,User,-,,Recall,Recall1,93999,Case,44.444444444444,84443,85186,0,0,,0.765
10140033VDC,nriegoihyz,"Mediated JOLs",1,62,2024-11-25T04:26:45+00:00,8.7059171199799,3,versionB_stim.csv,ReadVersion.csv,Read,Read2,DEATH,BUSINESS,Study2,U,44,25,Test,User,-,,Recall,Recall1,8092,Life,33.333333333333,5681,6768,0,0,,1
10140033VDC,nriegoihyz,"Mediated JOLs",1,63,2024-11-25T04:27:33+00:00,47.792495012283,3,versionB_stim.csv,ReadVersion.csv,Read,Read2,BENCH,HORN,Study2,U,43,48,Test,User,-,,Recall,Recall1,47023,clench,20,12256,12256,0,0,,0.852
10140033VDC,nriegoihyz,"Mediated JOLs",1,64,2024-11-25T04:27:44+00:00,10.72926902771,3,versionB_stim.csv,ReadVersion.csv,Read,Read2,WATER,REALITY,Study2,M,9,26,Test,User,-,,Recall,Recall1,10288,Ice,20,4003,8405,0,0,,1
10140033VDC,nriegoihyz,"Mediated JOLs",1,65,2024-11-25T04:28:01+00:00,17.41264796257,3,versionB_stim.csv,ReadVersion.csv,Read,Read2,HERD,COW,Study2,F,33,45,Test,User,-,,Recall,Recall1,16943,Sound,25,14030,15440,0,0,,1
10140033VDC,nriegoihyz,"Mediated JOLs",1,66,2024-11-25T04:28:22+00:00,20.826227903366,3,versionB_stim.csv,ReadVersion.csv,Read,Read2,SICK,HIDE,Study2,U,45,35,Test,User,-,,Recall,Recall1,20374,Ill,28.571428571429,5658,19881,0,0,,1
10140033VDC,nriegoihyz,"Mediated JOLs",1,67,2024-11-25T04:29:34+00:00,72.452461957932,3,versionB_stim.csv,ReadVersion.csv,Read,Read2,ARTERY,BRONZE,Study2,U,48,36,Test,User,-,,Recall,Recall1,71700,Vein,20,-1,-1,0,0,,0.408
10140033VDC,nriegoihyz,"Mediated JOLs",1,68,2024-11-25T04:29:43+00:00,8.3009991645813,3,versionB_stim.csv,ReadVersion.csv,Read,Read2,CHERRY,RED,Study2,F,25,23,Test,User,-,,Recall,Recall1,8031,Red,100,2815,6624,1,1,,1
10140033VDC,nriegoihyz,"Mediated JOLs",1,69,2024-11-25T04:30:02+00:00,19.137668848038,3,versionB_stim.csv,ReadVersion.csv,Read,Read2,WASP,BUG,Study2,F,34,14,Test,User,-,,Recall,Recall1,18722,Hornet,0,17351,17351,0,0,,0.828
10140033VDC,nriegoihyz,"Mediated JOLs",1,70,2024-11-25T04:30:09+00:00,6.8608820438385,3,versionB_stim.csv,ReadVersion.csv,Read,Read2,INCENSE,SMELL,Study2,F,28,18,Test,User,-,,Recall,Recall1,6487,Smell,100,3646,5102,1,1,,1
10140033VDC,nriegoihyz,"Mediated JOLs",1,71,2024-11-25T04:30:35+00:00,26.679160118103,3,versionB_stim.csv,ReadVersion.csv,Read,Read2,HAPPY,CAR,Study2,U,37,20,Test,User,-,,Recall,Recall1,26395,Meal,28.571428571429,23459,24376,0,0,,1
10140033VDC,nriegoihyz,"Mediated JOLs",1,72,2024-11-25T04:31:35+00:00,59.583171844482,3,versionB_stim.csv,ReadVersion.csv,Read,Read2,ATTIRE,CLOTHES,Study2,F,24,9,Test,User,-,,Recall,Recall1,58953,clothes,100,48874,57555,1,1,,0.802
10140033VDC,nriegoihyz,"Mediated JOLs",1,73,2024-11-25T04:31:39+00:00,4.4880361557007,3,versionB_stim.csv,ReadVersion.csv,Read,Read2,CACTUS,PLANT,Study2,F,21,37,Test,User,-,,Recall,Recall1,4091,plant,100,1783,2847,1,1,,1
10140033VDC,nriegoihyz,"Mediated JOLs",1,74,2024-11-25T04:31:53+00:00,13.383833885193,3,versionB_stim.csv,ReadVersion.csv,Read,Read2,HORNET,STING,Study2,F,30,42,Test,User,-,,Recall,Recall1,12766,bug,25,4859,11066,0,0,,1
10140033VDC,nriegoihyz,"Mediated JOLs",1,75,2024-11-25T04:32:24+00:00,31.554754972458,3,versionB_stim.csv,ReadVersion.csv,Read,Read2,PLANT,RAKE,Study2,M,14,29,Test,User,-,,Recall,Recall1,31062,cactus,20,-1,-1,0,0,,0.89
10140033VDC,nriegoihyz,"Mediated JOLs",1,76,2024-11-25T04:32:59+00:00,34.30047416687,3,versionB_stim.csv,ReadVersion.csv,Read,Read2,TASTE,EYES,Study2,M,10,44,Test,User,-,,Recall,Recall1,33313,food,0,31376,32070,0,0,,1
10140033VDC,nriegoihyz,"Mediated JOLs",1,77,2024-11-25T04:33:04+00:00,5.689624786377,3,versionB_stim.csv,ReadVersion.csv,Read,Read2,CASH,LEG,Study2,U,50,41,Test,User,-,,Recall,Recall1,4920,money,25,2217,3434,0,0,,1
10140033VDC,nriegoihyz,"Mediated JOLs",1,78,2024-11-25T04:33:11+00:00,6.376522064209,3,versionB_stim.csv,ReadVersion.csv,Read,Read2,CHOP,CUT,Study2,F,22,30,Test,User,-,,Recall,Recall1,5478,pork,0,3624,4311,0,0,,1
10140033VDC,nriegoihyz,"Mediated JOLs",1,79,2024-11-25T04:33:16+00:00,4.8192341327667,3,versionB_stim.csv,ReadVersion.csv,Read,Read2,BLAZE,FIRE,Study2,F,26,8,Test,User,-,,Recall,Recall1,3841,fire,100,1928,2546,1,1,,1
10140033VDC,nriegoihyz,"Mediated JOLs",1,80,2024-11-25T04:33:55+00:00,39.427636861801,3,versionB_stim.csv,ReadVersion.csv,Read,Read2,BIRD,HEAVY,Study2,M,13,13,Test,User,-,,Recall,Recall1,38288,heavy,100,-1,-1,1,1,,0.69
10140033VDC,nriegoihyz,"Mediated JOLs",1,81,2024-11-25T04:34:00+00:00,5.2927839756012,3,versionB_stim.csv,ReadVersion.csv,Read,Read2,LEG,GRILL,Study2,M,17,39,Test,User,-,,Recall,Recall1,4301,room,22.222222222222,2565,3162,0,0,,1
10140033VDC,nriegoihyz,"Mediated JOLs",1,82,2024-11-25T04:34:07+00:00,6.7327990531921,3,versionB_stim.csv,ReadVersion.csv,Read,Read2,WEAVE,OVEN,Study2,M,16,16,Test,User,-,,Recall,Recall1,6438,Heat,25,4209,5142,0,0,,1
10140033VDC,nriegoihyz,"Mediated JOLs",1,83,2024-11-25T04:34:12+00:00,4.978709936142,3,versionB_stim.csv,ReadVersion.csv,Read,Read2,PUSH,CLUTTER,Study2,U,41,43,Test,User,-,,Recall,Recall1,3992,up,22.222222222222,2136,2579,0,0,,1
10140033VDC,nriegoihyz,"Mediated JOLs",1,84,2024-11-25T04:35:10+00:00,58.214447975159,3,versionB_stim.csv,ReadVersion.csv,Read,Read2,WHITE,SUMMER,Study2,M,6,17,Test,User,-,,Recall,Recall1,57358,elephant,14.285714285714,-1,-1,0,0,,0.713
10140033VDC,nriegoihyz,"Mediated JOLs",1,85,2024-11-25T04:35:29+00:00,18.94739818573,3,versionB_stim.csv,ReadVersion.csv,Read,Read2,STRONG,ACCIDENT,Study2,U,39,33,Test,User,-,,Recall,Recall1,18624,muscles,26.666666666667,-1,-1,0,0,,0.796
10140033VDC,nriegoihyz,"Mediated JOLs",1,86,2024-11-25T04:35:49+00:00,19.759984016418,3,versionB_stim.csv,ReadVersion.csv,Read,Read2,DOCUMENT,PAPER,Study2,F,27,10,Test,User,-,,Recall,Recall1,19435,paper,100,3058,4783,1,1,,0.774
10140033VDC,nriegoihyz,"Mediated JOLs",1,87,2024-11-25T04:36:07+00:00,17.816675901413,3,versionB_stim.csv,ReadVersion.csv,Read,Read2,SIGN,SCHOOL,Study2,M,7,38,Test,User,-,,Recall,Recall1,17563,read,0,15216,16075,0,0,,0.75
10140033VDC,nriegoihyz,"Mediated JOLs",1,88,2024-11-25T04:36:12+00:00,5.1615920066833,3,versionB_stim.csv,ReadVersion.csv,Read,Read2,ARM,RAZOR,Study2,M,20,50,Test,User,-,,Recall,Recall1,4638,hand,22.222222222222,2429,3446,0,0,,1
10140033VDC,nriegoihyz,"Mediated JOLs",1,89,2024-11-25T04:36:18+00:00,6.4055070877075,3,versionB_stim.csv,ReadVersion.csv,Read,Read2,ART,WOLF,Study2,U,38,12,Test,User,-,,Recall,Recall1,6055,pop,28.571428571429,3862,4584,0,0,,1
10140033VDC,nriegoihyz,"Mediated JOLs",1,90,2024-11-25T04:36:56+00:00,38.064203023911,3,versionB_stim.csv,ReadVersion.csv,Read,Read2,LEAGUE,BASEBALL,Study2,F,29,11,Test,User,-,,Recall,Recall1,37454,games,30.769230769231,35321,36201,0,0,,0.77
10140033VDC,nriegoihyz,"Mediated JOLs",1,91,2024-11-25T04:37:15+00:00,18.54114985466,3,versionB_stim.csv,ReadVersion.csv,Read,Read2,MAN,TRAP,Study2,M,15,47,Test,User,-,,Recall,Recall1,18196,Woman,22.222222222222,7509,8887,0,0,,0.914
10140033VDC,nriegoihyz,"Mediated JOLs",1,92,2024-11-25T04:37:30+00:00,15.253387928009,3,versionB_stim.csv,ReadVersion.csv,Read,Read2,DIETARY,SACK,Study2,U,42,21,Test,User,-,,Recall,Recall1,14760,healthy,18.181818181818,-1,-1,0,0,,0.81
10140033VDC,nriegoihyz,"Mediated JOLs",1,93,2024-11-25T04:37:38+00:00,7.6984961032867,3,versionB_stim.csv,ReadVersion.csv,Read,Read2,HANDLE,WINDOW,Study2,M,19,7,Test,User,-,,Recall,Recall1,7422,fix,22.222222222222,4669,6020,0,0,,1
10140033VDC,nriegoihyz,"Mediated JOLs",1,94,2024-11-25T04:38:01+00:00,23.232927083969,3,versionB_stim.csv,ReadVersion.csv,Read,Read2,CHISEL,HAMMER,Study2,F,23,28,Test,User,-,,Recall,Recall1,22561,tool,0,-1,-1,0,0,,0.868
10140033VDC,nriegoihyz,"Mediated JOLs",1,95,2024-11-25T04:38:25+00:00,23.412281990051,3,versionB_stim.csv,ReadVersion.csv,Read,Read2,MIRROR,CHILDREN,Study2,U,49,32,Test,User,-,,Recall,Recall1,22911,child,76.923076923077,5063,8606,0,1,,0.853
10140033VDC,nriegoihyz,"Mediated JOLs",1,96,2024-11-25T04:38:44+00:00,19.747903823853,3,versionB_stim.csv,ReadVersion.csv,Read,Read2,KING,VASE,Study2,U,36,49,Test,User,-,,Recall,Recall1,19363,queen,22.222222222222,6892,8714,0,0,,0.937
10140033VDC,nriegoihyz,"Mediated JOLs",1,97,2024-11-25T04:38:51+00:00,6.529237985611,3,versionB_stim.csv,ReadVersion.csv,Read,Read2,DOG,PANTS,Study2,M,8,46,Test,User,-,,Recall,Recall1,6250,Park,44.444444444444,3937,5036,0,0,,1
10140033VDC,nriegoihyz,"Mediated JOLs",1,98,2024-11-25T04:39:06+00:00,15.095775127411,3,versionB_stim.csv,ReadVersion.csv,Read,Read2,TOP,VALLEY,Study2,M,18,15,Test,User,-,,Recall,Recall1,14878,Shelf,18.181818181818,6072,7852,0,0,,0.97
10140033VDC,nriegoihyz,"Mediated JOLs",1,99,2024-11-25T04:39:19+00:00,13.506042003632,3,versionB_stim.csv,ReadVersion.csv,Read,Read2,THIRST,SOAP,Study2,M,12,34,Test,User,-,,Recall,Recall1,13264,Drink,0,9271,11751,0,0,,1
10140033VDC,nriegoihyz,"Mediated JOLs",1,100,2024-11-25T04:39:27+00:00,7.9616920948029,3,versionB_stim.csv,ReadVersion.csv,Read,Read2,CHILL,COLD,Study2,F,32,24,Test,User,-,,Recall,Recall1,7460,pill,25,2894,6338,0,0,,1
10140033VDC,nriegoihyz,"Mediated JOLs",1,101,2024-11-25T04:39:37+00:00,9.8549618721008,3,versionB_stim.csv,ReadVersion.csv,Read,Read2,BOTH,OUNCE,Study2,U,47,40,Test,User,-,,Recall,Recall1,9548,Same,22.222222222222,7727,8335,0,0,,1
10140033VDC,nriegoihyz,"Mediated JOLs",1,102,2024-11-25T04:39:43+00:00,5.311408996582,3,versionB_stim.csv,ReadVersion.csv,Read,Read2,BRIDGE,WATER,Study2,F,35,19,Test,User,-,,Recall,Recall1,4734,Water,100,2269,3456,1,1,,1
10140033VDC,nriegoihyz,"Mediated JOLs",1,103,2024-11-25T04:40:05+00:00,22.894294023514,3,versionB_stim.csv,ReadVersion.csv,Read,Read2,SUGAR,RIDDLE,Study2,U,40,51,Test,User,-,,Recall,Recall1,22040,high,20,9922,20529,0,0,,1
10140033VDC,nriegoihyz,"Mediated JOLs",1,104,2024-11-25T04:40:40+00:00,34.560537099838,3,versionB_stim.csv,ReadVersion.csv,Read,Read2,FEUD,FIGHT,Study2,F,31,27,Test,User,-,,Recall,Recall1,33910,fight,100,3023,4918,1,1,,0.696
10140033VDC,nriegoihyz,"Mediated JOLs",1,105,2024-11-25T04:41:15+00:00,35.275851964951,3,versionB_stim.csv,ReadVersion.csv,Read,Read2,LEASE,TOIL,Study2,U,46,31,Test,User,-,,Recall,Recall1,34969,sign,25,-1,-1,0,0,,0.644
10140033VDC,nriegoihyz,"Mediated JOLs",1,106,2024-11-25T04:41:27+00:00,11.34504699707,3,versionB_stim.csv,ReadVersion.csv,Read,Read2,,,,,,0,Instruct,-,10,"You will now be presented with a new set of word pairs. Please study each pair. Remember that your memory will be tested! When finished, press Enter to move to the next pair.",Initial_Instruct,Instruct4,11088,,,-1,-1,,,,1
10140033VDC,nriegoihyz,"Mediated JOLs",1,107,2024-11-25T04:41:29+00:00,2.5609769821167,3,versionB_stim.csv,ReadVersion.csv,Read,Read2,,,,,,0,Instruct,User,-,"Press Enter when you are readty to begin",,Instruct11,2199,,,-1,-1,,,,1
10140033VDC,nriegoihyz,"Mediated JOLs",1,108,2024-11-25T04:42:55+00:00,85.374238967896,3,versionB_stim.csv,ReadVersion.csv,Read,Read2,CARROT,POTATO,BUFFER4,Buffer,51,53,Study,User,-,,Study/JOL,BUFFER2,84609,,,-1,-1,,,,1
10140033VDC,nriegoihyz,"Mediated JOLs",1,109,2024-11-25T04:42:57+00:00,2.5645110607147,3,versionB_stim.csv,ReadVersion.csv,Read,Read2,MOON,SPACE,BUFFER2,Buffer,109,109,Study,User,-,,Study/JOL,BUFFER2,1908,,,-1,-1,,,,1
10140033VDC,nriegoihyz,"Mediated JOLs",1,110,2024-11-25T04:43:00+00:00,2.4608068466187,3,versionB_stim.csv,ReadVersion.csv,Read,Read2,SHERRIF,POLICE,BUFFER2,Buffer,107,108,Study,User,-,,Study/JOL,BUFFER2,1818,,,-1,-1,,,,1
10140033VDC,nriegoihyz,"Mediated JOLs",1,111,2024-11-25T04:43:02+00:00,2.8856370449066,3,versionB_stim.csv,ReadVersion.csv,Read,Read2,PITCHER,CATCHER,BUFFER1,Buffer,57,58,Study,User,-,,Study/JOL,BUFFER2,2152,,,-1,-1,,,,1
10140033VDC,nriegoihyz,"Mediated JOLs",1,112,2024-11-25T04:43:06+00:00,3.0363659858704,3,versionB_stim.csv,ReadVersion.csv,Read,Read2,SHRIMP,FISH,BUFFER4,Buffer,53,54,Study,User,-,,Study/JOL,BUFFER2,2365,,,-1,-1,,,,1
10140033VDC,nriegoihyz,"Mediated JOLs",1,113,2024-11-25T04:43:08+00:00,2.1731879711151,3,versionB_stim.csv,ReadVersion.csv,Read,Read2,SOON,BELT,Study1,U,101,102,Study,User,-,,Study/JOL,"Study Phase2",1660,,,-1,-1,,,,1
10140033VDC,nriegoihyz,"Mediated JOLs",1,114,2024-11-25T04:43:09+00:00,1.7166650295258,3,versionB_stim.csv,ReadVersion.csv,Read,Read2,WAGE,MONEY,Study1,F,77,76,Study,User,-,,Study/JOL,"Study Phase2",1239,,,-1,-1,,,,1
10140033VDC,nriegoihyz,"Mediated JOLs",1,115,2024-11-25T04:43:11+00:00,2.0133371353149,3,versionB_stim.csv,ReadVersion.csv,Read,Read2,SIGN,TICK,Study1,U,102,95,Study,User,-,,Study/JOL,"Study Phase2",1518,,,-1,-1,,,,1
10140033VDC,nriegoihyz,"Mediated JOLs",1,116,2024-11-25T04:43:13+00:00,1.9562849998474,3,versionB_stim.csv,ReadVersion.csv,Read,Read2,FUN,CIRCLE,Study1,M,68,63,Study,User,-,,Study/JOL,"Study Phase2",1372,,,-1,-1,,,,1
10140033VDC,nriegoihyz,"Mediated JOLs",1,117,2024-11-25T04:43:15+00:00,2.0768928527832,3,versionB_stim.csv,ReadVersion.csv,Read,Read2,CRACKLE,ELECTION,Study1,U,94,89,Study,User,-,,Study/JOL,"Study Phase2",1411,,,-1,-1,,,,1
10140033VDC,nriegoihyz,"Mediated JOLs",1,118,2024-11-25T04:43:17+00:00,1.9868080615997,3,versionB_stim.csv,ReadVersion.csv,Read,Read2,MULE,DONKEY,Study1,F,79,78,Study,User,-,,Study/JOL,"Study Phase2",1385,,,-1,-1,,,,1
10140033VDC,nriegoihyz,"Mediated JOLs",1,119,2024-11-25T04:43:20+00:00,2.1840839385986,3,versionB_stim.csv,ReadVersion.csv,Read,Read2,LOUD,WAR,Study1,M,63,86,Study,User,-,,Study/JOL,"Study Phase2",1740,,,-1,-1,,,,1
10140033VDC,nriegoihyz,"Mediated JOLs",1,120,2024-11-25T04:43:23+00:00,3.4656980037689,3,versionB_stim.csv,ReadVersion.csv,Read,Read2,ROOT,PLANT,Study1,F,80,98,Study,User,-,,Study/JOL,"Study Phase2",1949,,,-1,-1,,,,1
10140033VDC,nriegoihyz,"Mediated JOLs",1,121,2024-11-25T04:43:25+00:00,2.0691320896149,3,versionB_stim.csv,ReadVersion.csv,Read,Read2,SQUARE,BEACH,Study1,M,62,80,Study,User,-,,Study/JOL,"Study Phase2",1466,,,-1,-1,,,,1
10140033VDC,nriegoihyz,"Mediated JOLs",1,122,2024-11-25T04:43:27+00:00,1.9923980236053,3,versionB_stim.csv,ReadVersion.csv,Read,Read2,SIP,DRINK,Study1,F,87,90,Study,User,-,,Study/JOL,"Study Phase2",1407,,,-1,-1,,,,1
10140033VDC,nriegoihyz,"Mediated JOLs",1,123,2024-11-25T04:43:29+00:00,1.9926760196686,3,versionB_stim.csv,ReadVersion.csv,Read,Read2,NAP,SLEEP,Study1,F,84,67,Study,User,-,,Study/JOL,"Study Phase2",1428,,,-1,-1,,,,1
10140033VDC,nriegoihyz,"Mediated JOLs",1,124,2024-11-25T04:43:31+00:00,2.0367298126221,3,versionB_stim.csv,ReadVersion.csv,Read,Read2,FUZZY,BANG,Study1,U,105,77,Study,User,-,,Study/JOL,"Study Phase2",1446,,,-1,-1,,,,1
10140033VDC,nriegoihyz,"Mediated JOLs",1,125,2024-11-25T04:43:33+00:00,2.1375620365143,3,versionB_stim.csv,ReadVersion.csv,Read,Read2,VEHICLE,CHARM,Study1,U,95,87,Study,User,-,,Study/JOL,"Study Phase2",1512,,,-1,-1,,,,1
10140033VDC,nriegoihyz,"Mediated JOLs",1,126,2024-11-25T04:43:35+00:00,1.9970901012421,3,versionB_stim.csv,ReadVersion.csv,Read,Read2,FLAG,LION,Study1,M,61,84,Study,User,-,,Study/JOL,"Study Phase2",1441,,,-1,-1,,,,1
10140033VDC,nriegoihyz,"Mediated JOLs",1,127,2024-11-25T04:43:38+00:00,2.2795798778534,3,versionB_stim.csv,ReadVersion.csv,Read,Read2,SWAN,BIRD,Study1,F,81,66,Study,User,-,,Study/JOL,"Study Phase2",1613,,,-1,-1,,,,1
10140033VDC,nriegoihyz,"Mediated JOLs",1,128,2024-11-25T04:43:41+00:00,3.7592630386353,3,versionB_stim.csv,ReadVersion.csv,Read,Read2,GIVE,STEAK,Study1,U,93,100,Study,User,-,,Study/JOL,"Study Phase2",1978,,,-1,-1,,,,1
10140033VDC,nriegoihyz,"Mediated JOLs",1,129,2024-11-25T04:43:44+00:00,2.2062661647797,3,versionB_stim.csv,ReadVersion.csv,Read,Read2,WORD,SENTENCE,Study1,F,82,70,Study,User,-,,Study/JOL,"Study Phase2",1515,,,-1,-1,,,,1
10140033VDC,nriegoihyz,"Mediated JOLs",1,130,2024-11-25T04:43:46+00:00,2.15389585495,3,versionB_stim.csv,ReadVersion.csv,Read,Read2,TEMPERATURE,MORNING,Study1,U,103,92,Study,User,-,,Study/JOL,"Study Phase2",1659,,,-1,-1,,,,1
10140033VDC,nriegoihyz,"Mediated JOLs",1,131,2024-11-25T04:43:48+00:00,1.9607529640198,3,versionB_stim.csv,ReadVersion.csv,Read,Read2,MULE,DONKEY,Study1,F,85,72,Study,User,-,,Study/JOL,"Study Phase2",1460,,,-1,-1,,,,1
10140033VDC,nriegoihyz,"Mediated JOLs",1,132,2024-11-25T04:43:50+00:00,1.9597120285034,3,versionB_stim.csv,ReadVersion.csv,Read,Read2,CREDIT,CARD,Study1,F,88,82,Study,User,-,,Study/JOL,"Study Phase2",1284,,,-1,-1,,,,1
10140033VDC,nriegoihyz,"Mediated JOLs",1,133,2024-11-25T04:43:51+00:00,1.6450629234314,3,versionB_stim.csv,ReadVersion.csv,Read,Read2,RUG,CEILING,Study1,M,70,85,Study,User,-,,Study/JOL,"Study Phase2",1315,,,-1,-1,,,,1
10140033VDC,nriegoihyz,"Mediated JOLs",1,134,2024-11-25T04:43:53+00:00,1.6416471004486,3,versionB_stim.csv,ReadVersion.csv,Read,Read2,ORCHID,FLOWER,Study1,F,89,91,Study,User,-,,Study/JOL,"Study Phase2",1420,,,-1,-1,,,,1
10140033VDC,nriegoihyz,"Mediated JOLs",1,135,2024-11-25T04:43:55+00:00,1.9678521156311,3,versionB_stim.csv,ReadVersion.csv,Read,Read2,MIRROR,MAROON,Study1,U,91,74,Study,User,-,,Study/JOL,"Study Phase2",1429,,,-1,-1,,,,1
10140033VDC,nriegoihyz,"Mediated JOLs",1,136,2024-11-25T04:43:56+00:00,1.5517477989197,3,versionB_stim.csv,ReadVersion.csv,Read,Read2,MAZE,PHONE,Study1,U,97,103,Study,User,-,,Study/JOL,"Study Phase2",1341,,,-1,-1,,,,1
10140033VDC,nriegoihyz,"Mediated JOLs",1,137,2024-11-25T04:43:58+00:00,1.8387989997864,3,versionB_stim.csv,ReadVersion.csv,Read,Read2,COMB,TOOTH,Study1,M,74,97,Study,User,-,,Study/JOL,"Study Phase2",1494,,,-1,-1,,,,1
10140033VDC,nriegoihyz,"Mediated JOLs",1,138,2024-11-25T04:44:00+00:00,1.6364190578461,3,versionB_stim.csv,ReadVersion.csv,Read,Read2,WORM,ROUGH,Study1,M,65,105,Study,User,-,,Study/JOL,"Study Phase2",1422,,,-1,-1,,,,1
10140033VDC,nriegoihyz,"Mediated JOLs",1,139,2024-11-25T04:44:01+00:00,1.5928511619568,3,versionB_stim.csv,ReadVersion.csv,Read,Read2,BLACK,DAY,Study1,M,73,99,Study,User,-,,Study/JOL,"Study Phase2",1365,,,-1,-1,,,,1
10140033VDC,nriegoihyz,"Mediated JOLs",1,140,2024-11-25T04:44:03+00:00,1.9901218414307,3,versionB_stim.csv,ReadVersion.csv,Read,Read2,AFFECTION,LOVE,Study1,F,86,81,Study,User,-,,Study/JOL,"Study Phase2",1391,,,-1,-1,,,,1
10140033VDC,nriegoihyz,"Mediated JOLs",1,141,2024-11-25T04:44:05+00:00,1.5844659805298,3,versionB_stim.csv,ReadVersion.csv,Read,Read2,JUMP,BAT,Study1,M,67,65,Study,User,-,,Study/JOL,"Study Phase2",1343,,,-1,-1,,,,1
10140033VDC,nriegoihyz,"Mediated JOLs",1,142,2024-11-25T04:44:07+00:00,1.9178810119629,3,versionB_stim.csv,ReadVersion.csv,Read,Read2,TIRE,HORSE,Study1,M,69,71,Study,User,-,,Study/JOL,"Study Phase2",1288,,,-1,-1,,,,1
10140033VDC,nriegoihyz,"Mediated JOLs",1,143,2024-11-25T04:44:09+00:00,2.1226389408112,3,versionB_stim.csv,ReadVersion.csv,Read,Read2,APPLE,BIRTHDAY,Study1,M,64,69,Study,User,-,,Study/JOL,"Study Phase2",1417,,,-1,-1,,,,1
10140033VDC,nriegoihyz,"Mediated JOLs",1,144,2024-11-25T04:44:12+00:00,2.9997231960297,3,versionB_stim.csv,ReadVersion.csv,Read,Read2,STRETCH,CLOTH,Study1,U,92,88,Study,User,-,,Study/JOL,"Study Phase2",2134,,,-1,-1,,,,1
10140033VDC,nriegoihyz,"Mediated JOLs",1,145,2024-11-25T04:44:15+00:00,2.6537599563599,3,versionB_stim.csv,ReadVersion.csv,Read,Read2,BEER,CRY,Study1,M,71,101,Study,User,-,,Study/JOL,"Study Phase2",1510,,,-1,-1,,,,1
10140033VDC,nriegoihyz,"Mediated JOLs",1,146,2024-11-25T04:44:17+00:00,2.0266849994659,3,versionB_stim.csv,ReadVersion.csv,Read,Read2,LISTEN,FICTION,Study1,U,99,79,Study,User,-,,Study/JOL,"Study Phase2",1492,,,-1,-1,,,,1
10140033VDC,nriegoihyz,"Mediated JOLs",1,147,2024-11-25T04:44:19+00:00,2.2211940288544,3,versionB_stim.csv,ReadVersion.csv,Read,Read2,SHELL,SHAKE,Study1,U,98,68,Study,User,-,,Study/JOL,"Study Phase2",1804,,,-1,-1,,,,1
10140033VDC,nriegoihyz,"Mediated JOLs",1,148,2024-11-25T04:44:21+00:00,2.0260229110718,3,versionB_stim.csv,ReadVersion.csv,Read,Read2,PANCAKES,TREE,Study1,M,66,75,Study,User,-,,Study/JOL,"Study Phase2",1808,,,-1,-1,,,,1
10140033VDC,nriegoihyz,"Mediated JOLs",1,149,2024-11-25T04:44:23+00:00,1.9038059711456,3,versionB_stim.csv,ReadVersion.csv,Read,Read2,LITTER,TRASH,Study1,F,76,93,Study,User,-,,Study/JOL,"Study Phase2",1646,,,-1,-1,,,,1
10140033VDC,nriegoihyz,"Mediated JOLs",1,150,2024-11-25T04:44:25+00:00,1.7154850959778,3,versionB_stim.csv,ReadVersion.csv,Read,Read2,SCALP,HEAD,Study1,F,78,62,Study,User,-,,Study/JOL,"Study Phase2",1331,,,-1,-1,,,,1
10140033VDC,nriegoihyz,"Mediated JOLs",1,151,2024-11-25T04:44:26+00:00,1.5943410396576,3,versionB_stim.csv,ReadVersion.csv,Read,Read2,TUNA,FISH,Study1,F,90,64,Study,User,-,,Study/JOL,"Study Phase2",1383,,,-1,-1,,,,1
10140033VDC,nriegoihyz,"Mediated JOLs",1,152,2024-11-25T04:44:28+00:00,1.6736419200897,3,versionB_stim.csv,ReadVersion.csv,Read,Read2,MEAT,KEYS,Study1,U,96,96,Study,User,-,,Study/JOL,"Study Phase2",1433,,,-1,-1,,,,1
10140033VDC,nriegoihyz,"Mediated JOLs",1,153,2024-11-25T04:44:30+00:00,1.763247013092,3,versionB_stim.csv,ReadVersion.csv,Read,Read2,CAKE,HAND,Study1,U,104,104,Study,User,-,,Study/JOL,"Study Phase2",1264,,,-1,-1,,,,1
10140033VDC,nriegoihyz,"Mediated JOLs",1,154,2024-11-25T04:44:32+00:00,1.8652899265289,3,versionB_stim.csv,ReadVersion.csv,Read,Read2,BALL,HARD,Study1,M,75,106,Study,User,-,,Study/JOL,"Study Phase2",1290,,,-1,-1,,,,1
10140033VDC,nriegoihyz,"Mediated JOLs",1,155,2024-11-25T04:44:33+00:00,1.5154950618744,3,versionB_stim.csv,ReadVersion.csv,Read,Read2,KEYS,ROD,Study1,U,100,83,Study,User,-,,Study/JOL,"Study Phase2",1303,,,-1,-1,,,,1
10140033VDC,nriegoihyz,"Mediated JOLs",1,156,2024-11-25T04:44:35+00:00,1.7051129341125,3,versionB_stim.csv,ReadVersion.csv,Read,Read2,HAND,WEDDING,Study1,M,72,94,Study,User,-,,Study/JOL,"Study Phase2",1461,,,-1,-1,,,,1
10140033VDC,nriegoihyz,"Mediated JOLs",1,157,2024-11-25T04:44:36+00:00,1.66428399086,3,versionB_stim.csv,ReadVersion.csv,Read,Read2,HYGIENE,CLEAN,Study1,F,83,73,Study,User,-,,Study/JOL,"Study Phase2",1186,,,-1,-1,,,,1
10140033VDC,nriegoihyz,"Mediated JOLs",1,158,2024-11-25T04:44:38+00:00,1.9585540294647,3,versionB_stim.csv,ReadVersion.csv,Read,Read2,NOODLE,STRING,BUFFER4,Buffer,52,56,Study,User,-,,Study/JOL,BUFFER2,1358,,,-1,-1,,,,1
10140033VDC,nriegoihyz,"Mediated JOLs",1,159,2024-11-25T04:44:41+00:00,2.4034471511841,3,versionB_stim.csv,ReadVersion.csv,Read,Read2,CAMP,ADVENTURE,BUFFER4,Buffer,55,52,Study,User,-,,Study/JOL,BUFFER2,1735,,,-1,-1,,,,1
10140033VDC,nriegoihyz,"Mediated JOLs",1,160,2024-11-25T04:44:43+00:00,2.4138748645782,3,versionB_stim.csv,ReadVersion.csv,Read,Read2,GEESE,GOOSE,BUFFER2,Buffer,106,111,Study,User,-,,Study/JOL,BUFFER2,1994,,,-1,-1,,,,1
10140033VDC,nriegoihyz,"Mediated JOLs",1,161,2024-11-25T04:44:45+00:00,1.4055380821228,3,versionB_stim.csv,ReadVersion.csv,Read,Read2,SCARE,FRIGHT,BUFFER1,Buffer,59,59,Study,User,-,,Study/JOL,BUFFER2,1163,,,-1,-1,,,,1
10140033VDC,nriegoihyz,"Mediated JOLs",1,162,2024-11-25T04:44:46+00:00,1.4051108360291,3,versionB_stim.csv,ReadVersion.csv,Read,Read2,TREES,GREEN,BUFFER1,Buffer,56,61,Study,User,-,,Study/JOL,BUFFER2,943,,,-1,-1,,,,1
10140033VDC,nriegoihyz,"Mediated JOLs",1,163,2024-11-25T04:45:06+00:00,19.711196184158,3,versionB_stim.csv,ReadVersion.csv,Read,Read2,,,,,,0,Instruct,User,-,"You have completed this section. Please press Enter.",Filler_Instruction,Instruct2,19381,,,-1,-1,,,,1
10140033VDC,nriegoihyz,"Mediated JOLs",1,164,2024-11-25T04:47:06+00:00,120.59930682182,3,versionB_stim.csv,ReadVersion.csv,Read,Read2,,,,,,0,FreeRecall,120,120,"Please list the 50 US states in alphabetical order. The task will automatically advance to the next screen after two minutes.",,Filler1,120002,"alabama arkansas Arizona",0,8336,93627,0,0,,1
10140033VDC,nriegoihyz,"Mediated JOLs",1,165,2024-11-25T04:47:18+00:00,11.459650993347,3,versionB_stim.csv,ReadVersion.csv,Read,Read2,,,,,,0,Instruct,-,10,"You will now be presented with the first word from each of the previously studied item pairs. Please type the missing word. If you do not know the word, you may guess or press Enter to skip forward to the next pair.",,Instruct3,10956,,,-1,-1,,,,1
10140033VDC,nriegoihyz,"Mediated JOLs",1,166,2024-11-25T04:47:54+00:00,36.127139091492,3,versionB_stim.csv,ReadVersion.csv,Read,Read2,AFFECTION,LOVE,Study1,F,86,81,Test,User,-,,Recall,Recall2,35489,Love,100,33040,34308,1,1,,1
10140033VDC,nriegoihyz,"Mediated JOLs",1,167,2024-11-25T04:48:03+00:00,9.3669159412384,3,versionB_stim.csv,ReadVersion.csv,Read,Read2,LOUD,WAR,Study1,M,63,86,Test,User,-,,Recall,Recall2,8672,sound,0,5476,7670,0,0,,1
10140033VDC,nriegoihyz,"Mediated JOLs",1,168,2024-11-25T04:49:05+00:00,61.932276010513,3,versionB_stim.csv,ReadVersion.csv,Read,Read2,SCALP,HEAD,Study1,F,78,62,Test,User,-,,Recall,Recall2,61313,,0,-1,-1,0,0,,1
10140033VDC,nriegoihyz,"Mediated JOLs",1,169,2024-11-25T04:49:32+00:00,27.144181966782,3,versionB_stim.csv,ReadVersion.csv,Read,Read2,MEAT,KEYS,Study1,U,96,96,Test,User,-,,Recall,Recall2,26810,beef,25,19046,20383,0,0,,1
10140033VDC,nriegoihyz,"Mediated JOLs",1,170,2024-11-25T04:49:39+00:00,6.5394520759583,3,versionB_stim.csv,ReadVersion.csv,Read,Read2,MULE,DONKEY,Study1,F,85,72,Test,User,-,,Recall,Recall2,6016,cow,22.222222222222,2679,3933,0,0,,1
10140033VDC,nriegoihyz,"Mediated JOLs",1,171,2024-11-25T04:49:51+00:00,12.185095071793,3,versionB_stim.csv,ReadVersion.csv,Read,Read2,LITTER,TRASH,Study1,F,76,93,Test,User,-,,Recall,Recall2,11951,cat,25,2393,6426,0,0,,1
10140033VDC,nriegoihyz,"Mediated JOLs",1,172,2024-11-25T04:50:59+00:00,67.856014966965,3,versionB_stim.csv,ReadVersion.csv,Read,Read2,HYGIENE,CLEAN,Study1,F,83,73,Test,User,-,,Recall,Recall2,67406,shower,18.181818181818,63613,66050,0,0,,1
10140033VDC,nriegoihyz,"Mediated JOLs",1,173,2024-11-25T04:51:06+00:00,7.2633888721466,3,versionB_stim.csv,ReadVersion.csv,Read,Read2,SHELL,SHAKE,Study1,U,98,68,Test,User,-,,Recall,Recall2,6982,tail,22.222222222222,4120,5696,0,0,,1
10140033VDC,nriegoihyz,"Mediated JOLs",1,174,2024-11-25T04:51:51+00:00,45.161743164062,3,versionB_stim.csv,ReadVersion.csv,Read,Read2,PANCAKES,TREE,Study1,M,66,75,Test,User,-,,Recall,Recall2,44696,tree,100,41186,41942,1,1,,1
10140033VDC,nriegoihyz,"Mediated JOLs",1,175,2024-11-25T04:52:35+00:00,43.217754840851,3,versionB_stim.csv,ReadVersion.csv,Read,Read2,WORM,ROUGH,Study1,M,65,105,Test,User,-,,Recall,Recall2,42772,rough,100,37646,41107,1,1,,1
10140033VDC,nriegoihyz,"Mediated JOLs",1,176,2024-11-25T04:52:49+00:00,14.148463010788,3,versionB_stim.csv,ReadVersion.csv,Read,Read2,WAGE,MONEY,Study1,F,77,76,Test,User,-,,Recall,Recall2,13750,pay,25,5339,11074,0,0,,1
10140033VDC,nriegoihyz,"Mediated JOLs",1,177,2024-11-25T04:54:09+00:00,80.725953102112,3,versionB_stim.csv,ReadVersion.csv,Read,Read2,HAND,WEDDING,Study1,M,72,94,Test,User,-,,Recall,Recall2,80011,scalp,0,68852,76354,0,0,,1
10140033VDC,nriegoihyz,"Mediated JOLs",1,178,2024-11-25T04:55:05+00:00,55.965365886688,3,versionB_stim.csv,ReadVersion.csv,Read,Read2,SQUARE,BEACH,Study1,M,62,80,Test,User,-,,Recall,Recall2,55519,beach,100,50227,54170,1,1,,1
10140033VDC,nriegoihyz,"Mediated JOLs",1,179,2024-11-25T04:55:51+00:00,45.58558511734,3,versionB_stim.csv,ReadVersion.csv,Read,Read2,APPLE,BIRTHDAY,Study1,M,64,69,Test,User,-,,Recall,Recall2,45081,tree,16.666666666667,43601,44299,0,0,,1
10140033VDC,nriegoihyz,"Mediated JOLs",1,180,2024-11-25T04:56:23+00:00,32.453078985214,3,versionB_stim.csv,ReadVersion.csv,Read,Read2,TIRE,HORSE,Study1,M,69,71,Test,User,-,,Recall,Recall2,31918,,0,-1,-1,0,0,,1
10140033VDC,nriegoihyz,"Mediated JOLs",1,181,2024-11-25T04:56:33+00:00,9.5948529243469,3,versionB_stim.csv,ReadVersion.csv,Read,Read2,VEHICLE,CHARM,Study1,U,95,87,Test,User,-,,Recall,Recall2,8908,car,75,6765,7835,0,1,,1
10140033VDC,nriegoihyz,"Mediated JOLs",1,182,2024-11-25T04:56:48+00:00,14.545555114746,3,versionB_stim.csv,ReadVersion.csv,Read,Read2,MIRROR,MAROON,Study1,U,91,74,Test,User,-,,Recall,Recall2,13758,maroon,100,9108,11374,1,1,,1
10140033VDC,nriegoihyz,"Mediated JOLs",1,183,2024-11-25T04:57:09+00:00,21.381324052811,3,versionB_stim.csv,ReadVersion.csv,Read,Read2,ROOT,PLANT,Study1,F,80,98,Test,User,-,,Recall,Recall2,20674,plant,100,17637,19362,1,1,,1
10140033VDC,nriegoihyz,"Mediated JOLs",1,184,2024-11-25T04:57:13+00:00,3.6599049568176,3,versionB_stim.csv,ReadVersion.csv,Read,Read2,CREDIT,CARD,Study1,F,88,82,Test,User,-,,Recall,Recall2,3363,card,100,1337,2547,1,1,,1
10140033VDC,nriegoihyz,"Mediated JOLs",1,185,2024-11-25T04:57:30+00:00,17.280545949936,3,versionB_stim.csv,ReadVersion.csv,Read,Read2,MULE,DONKEY,Study1,F,79,78,Test,User,-,,Recall,Recall2,16471,horse,36.363636363636,1796,3420,0,0,,0.873
10140033VDC,nriegoihyz,"Mediated JOLs",1,186,2024-11-25T04:57:43+00:00,12.932513952255,3,versionB_stim.csv,ReadVersion.csv,Read,Read2,FUN,CIRCLE,Study1,M,68,63,Test,User,-,,Recall,Recall2,12000,games,18.181818181818,9872,11573,0,0,,1
10140033VDC,nriegoihyz,"Mediated JOLs",1,187,2024-11-25T04:58:11+00:00,28.028357982635,3,versionB_stim.csv,ReadVersion.csv,Read,Read2,JUMP,BAT,Study1,M,67,65,Test,User,-,,Recall,Recall2,27740,bat,100,24050,25514,1,1,,1
10140033VDC,nriegoihyz,"Mediated JOLs",1,188,2024-11-25T04:58:16+00:00,5.1436829566956,3,versionB_stim.csv,ReadVersion.csv,Read,Read2,TUNA,FISH,Study1,F,90,64,Test,User,-,,Recall,Recall2,4839,fish,100,2107,2989,1,1,,1
10140033VDC,nriegoihyz,"Mediated JOLs",1,189,2024-11-25T04:58:22+00:00,5.6271290779114,3,versionB_stim.csv,ReadVersion.csv,Read,Read2,FUZZY,BANG,Study1,U,105,77,Test,User,-,,Recall,Recall2,5007,rug,28.571428571429,2604,3526,0,0,,1
10140033VDC,nriegoihyz,"Mediated JOLs",1,190,2024-11-25T04:59:23+00:00,61.19931602478,3,versionB_stim.csv,ReadVersion.csv,Read,Read2,SIGN,TICK,Study1,U,102,95,Test,User,-,,Recall,Recall2,59795,tick,100,56010,57022,1,1,,1
10140033VDC,nriegoihyz,"Mediated JOLs",1,191,2024-11-25T04:59:27+00:00,4.4606349468231,3,versionB_stim.csv,ReadVersion.csv,Read,Read2,GIVE,STEAK,Study1,U,93,100,Test,User,-,,Recall,Recall2,3909,,0,-1,-1,0,0,,1
10140033VDC,nriegoihyz,"Mediated JOLs",1,192,2024-11-25T04:59:35+00:00,7.5618481636047,3,versionB_stim.csv,ReadVersion.csv,Read,Read2,WORD,SENTENCE,Study1,F,82,70,Test,User,-,,Recall,Recall2,7319,play,0,3648,6909,0,0,,1
10140033VDC,nriegoihyz,"Mediated JOLs",1,193,2024-11-25T04:59:42+00:00,7.3408060073853,3,versionB_stim.csv,ReadVersion.csv,Read,Read2,FLAG,LION,Study1,M,61,84,Test,User,-,,Recall,Recall2,6747,pole,25,2438,4306,0,0,,1
10140033VDC,nriegoihyz,"Mediated JOLs",1,194,2024-11-25T05:00:21+00:00,39.125206947327,3,versionB_stim.csv,ReadVersion.csv,Read,Read2,SIP,DRINK,Study1,F,87,90,Test,User,-,,Recall,Recall2,38200,drink,100,17959,36400,1,1,,1
10140033VDC,nriegoihyz,"Mediated JOLs",1,195,2024-11-25T05:00:23+00:00,1.8976600170135,3,versionB_stim.csv,ReadVersion.csv,Read,Read2,NAP,SLEEP,Study1,F,84,67,Test,User,-,,Recall,Recall2,1620,,0,-1,-1,0,0,,1
10140033VDC,nriegoihyz,"Mediated JOLs",1,196,2024-11-25T05:00:26+00:00,2.3096809387207,3,versionB_stim.csv,ReadVersion.csv,Read,Read2,LISTEN,FICTION,Study1,U,99,79,Test,User,-,,Recall,Recall2,2083,,0,-1,-1,0,0,,1
10140033VDC,nriegoihyz,"Mediated JOLs",1,197,2024-11-25T05:00:31+00:00,5.8974740505219,3,versionB_stim.csv,ReadVersion.csv,Read,Read2,ORCHID,FLOWER,Study1,F,89,91,Test,User,-,,Recall,Recall2,5475,flower,100,1761,4763,1,1,,1
10140033VDC,nriegoihyz,"Mediated JOLs",1,198,2024-11-25T05:00:36+00:00,4.1061708927155,3,versionB_stim.csv,ReadVersion.csv,Read,Read2,KEYS,ROD,Study1,U,100,83,Test,User,-,,Recall,Recall2,3372,ring,28.571428571429,2281,3043,0,0,,1
10140033VDC,nriegoihyz,"Mediated JOLs",1,199,2024-11-25T05:00:53+00:00,17.623096942902,3,versionB_stim.csv,ReadVersion.csv,Read,Read2,MAZE,PHONE,Study1,U,97,103,Test,User,-,,Recall,Recall2,17091,phone,100,14683,16371,1,1,,1
10140033VDC,nriegoihyz,"Mediated JOLs",1,200,2024-11-25T05:01:08+00:00,14.806388139725,3,versionB_stim.csv,ReadVersion.csv,Read,Read2,STRETCH,CLOTH,Study1,U,92,88,Test,User,-,,Recall,Recall2,14520,cloth,100,10756,13841,1,1,,1
10140033VDC,nriegoihyz,"Mediated JOLs",1,201,2024-11-25T05:01:21+00:00,12.920909881592,3,versionB_stim.csv,ReadVersion.csv,Read,Read2,CAKE,HAND,Study1,U,104,104,Test,User,-,,Recall,Recall2,12464,hand,100,10266,12001,1,1,,1
10140033VDC,nriegoihyz,"Mediated JOLs",1,202,2024-11-25T05:01:36+00:00,14.641252994537,3,versionB_stim.csv,ReadVersion.csv,Read,Read2,BLACK,DAY,Study1,M,73,99,Test,User,-,,Recall,Recall2,13862,day,100,12182,13658,1,1,,1
10140033VDC,nriegoihyz,"Mediated JOLs",1,203,2024-11-25T05:01:37+00:00,1.2636849880219,3,versionB_stim.csv,ReadVersion.csv,Read,Read2,BALL,HARD,Study1,M,75,106,Test,User,-,,Recall,Recall2,932,,0,-1,-1,0,0,,1
10140033VDC,nriegoihyz,"Mediated JOLs",1,204,2024-11-25T05:01:39+00:00,2.0519351959229,3,versionB_stim.csv,ReadVersion.csv,Read,Read2,CRACKLE,ELECTION,Study1,U,94,89,Test,User,-,,Recall,Recall2,1093,,0,-1,-1,0,0,,1
10140033VDC,nriegoihyz,"Mediated JOLs",1,205,2024-11-25T05:01:46+00:00,7.6130459308624,3,versionB_stim.csv,ReadVersion.csv,Read,Read2,BEER,CRY,Study1,M,71,101,Test,User,-,,Recall,Recall2,6823,cry,100,5677,6557,1,1,,1
10140033VDC,nriegoihyz,"Mediated JOLs",1,206,2024-11-25T05:02:28+00:00,41.6671230793,3,versionB_stim.csv,ReadVersion.csv,Read,Read2,SWAN,BIRD,Study1,F,81,66,Test,User,-,,Recall,Recall2,40572,bird,100,38632,39844,1,1,,1
10140033VDC,nriegoihyz,"Mediated JOLs",1,207,2024-11-25T05:02:52+00:00,23.855618000031,3,versionB_stim.csv,ReadVersion.csv,Read,Read2,SOON,BELT,Study1,U,101,102,Test,User,-,,Recall,Recall2,22668,belt,100,19547,21645,1,1,,1
10140033VDC,nriegoihyz,"Mediated JOLs",1,208,2024-11-25T05:03:13+00:00,21.22490978241,3,versionB_stim.csv,ReadVersion.csv,Read,Read2,RUG,CEILING,Study1,M,70,85,Test,User,-,,Recall,Recall2,20693,ceiling,100,16446,20274,1,1,,1
10140033VDC,nriegoihyz,"Mediated JOLs",1,209,2024-11-25T05:03:27+00:00,14.231698989868,3,versionB_stim.csv,ReadVersion.csv,Read,Read2,COMB,TOOTH,Study1,M,74,97,Test,User,-,,Recall,Recall2,13501,tooth,100,11773,13247,1,1,,1
10140033VDC,nriegoihyz,"Mediated JOLs",1,210,2024-11-25T05:04:10+00:00,42.395612001419,3,versionB_stim.csv,ReadVersion.csv,Read,Read2,TEMPERATURE,MORNING,Study1,U,103,92,Test,User,-,,Recall,Recall2,41213,morning,100,29296,40920,1,1,,1
10140033VDC,nriegoihyz,"Mediated JOLs",1,211,2024-11-25T05:04:15+00:00,4.6973321437836,3,versionB_stim.csv,ReadVersion.csv,Read,Read2,,,,,,0,Instruct,User,-,"You have completed this section. Please press Enter.",,Instruct7,4368,,,-1,-1,,,,1
10140033VDC,nriegoihyz,"Mediated JOLs",1,212,2024-11-25T05:04:23+00:00,8.3586039543152,3,versionB_stim.csv,ReadVersion.csv,Read,Read2,,,,,,0,Instruct,User,-,"The following screen will ask you a few questions abour your experience today. You must complete these questions to receive credit.",,Instruct8,7638,,,-1,-1,,,,1
