Username,ID,ExperimentName,Session,Trial,Date,TimeDif,"Condition Number","Stimuli File","Order File","Condition Description","Condition Notes",Stimuli*Cue,Stimuli*Answer,Stimuli*Shuffle,"Stimuli*Stimuli Notes",Stimuli*Value,Procedure*Item,"Procedure*Trial Type","Procedure*Max Time","Procedure*Min Time",Procedure*Text,"Procedure*Procedure Notes",Procedure*Shuffle,Response*RT,Response*Response,Response*Accuracy,Response*RTfirst,Response*RTlast,Response*strictAcc,Response*lenientAcc,Response*focus,Response*Focus
M20317660_HDM,7dtn2s7n55,"Mediated JOLs",1,1,2024-04-17T14:45:44+00:00,8.7098410129547,3,versionB_stim.csv,ReadVersion.csv,Read,Read2,,,,,,0,Instruct,-,5,"In this section, you will be presented with a series of word pairs. Please study each word pair! Your memory will be tested!",Initial_Instruct,Instruct1,5472,,,-1,-1,,,,1
M20317660_HDM,7dtn2s7n55,"Mediated JOLs",1,2,2024-04-17T14:45:46+00:00,2.0392119884491,3,versionB_stim.csv,ReadVersion.csv,Read,Read2,,,,,,0,Instruct,User,-,"You will now begin. Press Enter when you are ready to begin.",,Instruct16,1740,,,-1,-1,,,,1
M20317660_HDM,7dtn2s7n55,"Mediated JOLs",1,3,2024-04-17T14:45:51+00:00,5.1129398345947,3,versionB_stim.csv,ReadVersion.csv,Read,Read2,DAYS,WEAKS,BUFFER3,Buffer,1,5,Study,User,-,,Study/JOL,BUFFER,4844,,,-1,-1,,,,1
M20317660_HDM,7dtn2s7n55,"Mediated JOLs",1,4,2024-04-17T14:45:56+00:00,4.4864780902863,3,versionB_stim.csv,ReadVersion.csv,Read,Read2,SPRING,MARCH,BUFFER3,Buffer,4,3,Study,User,-,,Study/JOL,BUFFER,4223,,,-1,-1,,,,1
M20317660_HDM,7dtn2s7n55,"Mediated JOLs",1,5,2024-04-17T14:45:59+00:00,3.7498710155487,3,versionB_stim.csv,ReadVersion.csv,Read,Read2,TOOL,SHED,BUFFER3,Buffer,3,4,Study,User,-,,Study/JOL,BUFFER,3471,,,-1,-1,,,,1
M20317660_HDM,7dtn2s7n55,"Mediated JOLs",1,6,2024-04-17T14:46:03+00:00,4.044086933136,3,versionB_stim.csv,ReadVersion.csv,Read,Read2,OCTOBER,SPOOKY,BUFFER3,Buffer,5,2,Study,User,-,,Study/JOL,BUFFER,3829,,,-1,-1,,,,1
M20317660_HDM,7dtn2s7n55,"Mediated JOLs",1,7,2024-04-17T14:46:07+00:00,4.1832160949707,3,versionB_stim.csv,ReadVersion.csv,Read,Read2,MONTH,YEAR,BUFFER3,Buffer,2,6,Study,User,-,,Study/JOL,BUFFER,3863,,,-1,-1,,,,1
M20317660_HDM,7dtn2s7n55,"Mediated JOLs",1,8,2024-04-17T14:46:11+00:00,3.8316149711609,3,versionB_stim.csv,ReadVersion.csv,Read,Read2,HEAVY,FEATHER,Study2,M,13,37,Study,User,-,,Study/JOL,"Study Phase",3578,,,-1,-1,,,,1
M20317660_HDM,7dtn2s7n55,"Mediated JOLs",1,9,2024-04-17T14:46:16+00:00,4.7863440513611,3,versionB_stim.csv,ReadVersion.csv,Read,Read2,RAKE,SEED,Study2,M,14,7,Study,User,-,,Study/JOL,"Study Phase",4489,,,-1,-1,,,,1
M20317660_HDM,7dtn2s7n55,"Mediated JOLs",1,10,2024-04-17T14:46:20+00:00,3.7651059627533,3,versionB_stim.csv,ReadVersion.csv,Read,Read2,EYES,SMELL,Study2,M,10,35,Study,User,-,,Study/JOL,"Study Phase",3501,,,-1,-1,,,,1
M20317660_HDM,7dtn2s7n55,"Mediated JOLs",1,11,2024-04-17T14:46:24+00:00,3.9906089305878,3,versionB_stim.csv,ReadVersion.csv,Read,Read2,DOCUMENT,PAPER,Study2,F,27,15,Study,User,-,,Study/JOL,"Study Phase",3695,,,-1,-1,,,,1
M20317660_HDM,7dtn2s7n55,"Mediated JOLs",1,12,2024-04-17T14:46:28+00:00,4.1746640205383,3,versionB_stim.csv,ReadVersion.csv,Read,Read2,BENCH,HORN,Study2,U,43,45,Study,User,-,,Study/JOL,"Study Phase",3884,,,-1,-1,,,,1
M20317660_HDM,7dtn2s7n55,"Mediated JOLs",1,13,2024-04-17T14:46:32+00:00,3.7272529602051,3,versionB_stim.csv,ReadVersion.csv,Read,Read2,CASH,LEG,Study2,U,50,41,Study,User,-,,Study/JOL,"Study Phase",3436,,,-1,-1,,,,1
M20317660_HDM,7dtn2s7n55,"Mediated JOLs",1,14,2024-04-17T14:46:35+00:00,3.3331770896912,3,versionB_stim.csv,ReadVersion.csv,Read,Read2,VALLEY,PEAK,Study2,M,18,18,Study,User,-,,Study/JOL,"Study Phase",3124,,,-1,-1,,,,1
M20317660_HDM,7dtn2s7n55,"Mediated JOLs",1,15,2024-04-17T14:46:38+00:00,3.3993740081787,3,versionB_stim.csv,ReadVersion.csv,Read,Read2,TRAP,CAVE,Study2,M,15,48,Study,User,-,,Study/JOL,"Study Phase",3015,,,-1,-1,,,,1
M20317660_HDM,7dtn2s7n55,"Mediated JOLs",1,16,2024-04-17T14:46:42+00:00,3.7100138664246,3,versionB_stim.csv,ReadVersion.csv,Read,Read2,SUMMER,SNOW,Study2,M,6,9,Study,User,-,,Study/JOL,"Study Phase",3430,,,-1,-1,,,,1
M20317660_HDM,7dtn2s7n55,"Mediated JOLs",1,17,2024-04-17T14:46:46+00:00,4.1447579860687,3,versionB_stim.csv,ReadVersion.csv,Read,Read2,CHOP,CUT,Study2,F,22,28,Study,User,-,,Study/JOL,"Study Phase",3901,,,-1,-1,,,,1
M20317660_HDM,7dtn2s7n55,"Mediated JOLs",1,18,2024-04-17T14:46:50+00:00,3.7854261398315,3,versionB_stim.csv,ReadVersion.csv,Read,Read2,LEASE,TOIL,Study2,U,46,14,Study,User,-,,Study/JOL,"Study Phase",3537,,,-1,-1,,,,1
M20317660_HDM,7dtn2s7n55,"Mediated JOLs",1,19,2024-04-17T14:46:54+00:00,4.007385969162,3,versionB_stim.csv,ReadVersion.csv,Read,Read2,ATTIRE,CLOTHES,Study2,F,24,32,Study,User,-,,Study/JOL,"Study Phase",3788,,,-1,-1,,,,1
M20317660_HDM,7dtn2s7n55,"Mediated JOLs",1,20,2024-04-17T14:46:58+00:00,3.9772250652313,3,versionB_stim.csv,ReadVersion.csv,Read,Read2,KING,VASE,Study2,U,36,33,Study,User,-,,Study/JOL,"Study Phase",3728,,,-1,-1,,,,1
M20317660_HDM,7dtn2s7n55,"Mediated JOLs",1,21,2024-04-17T14:47:03+00:00,4.5434620380402,3,versionB_stim.csv,ReadVersion.csv,Read,Read2,LEAGUE,BASEBALL,Study2,F,29,46,Study,User,-,,Study/JOL,"Study Phase",4188,,,-1,-1,,,,1
M20317660_HDM,7dtn2s7n55,"Mediated JOLs",1,22,2024-04-17T14:47:07+00:00,4.2298429012299,3,versionB_stim.csv,ReadVersion.csv,Read,Read2,STRONG,ACCIDENT,Study2,U,39,16,Study,User,-,,Study/JOL,"Study Phase",3695,,,-1,-1,,,,1
M20317660_HDM,7dtn2s7n55,"Mediated JOLs",1,23,2024-04-17T14:47:11+00:00,4.0568730831146,3,versionB_stim.csv,ReadVersion.csv,Read,Read2,SUGAR,RIDDLE,Study2,U,40,36,Study,User,-,,Study/JOL,"Study Phase",3841,,,-1,-1,,,,1
M20317660_HDM,7dtn2s7n55,"Mediated JOLs",1,24,2024-04-17T14:47:14+00:00,3.3941149711609,3,versionB_stim.csv,ReadVersion.csv,Read,Read2,BRIDGE,WATER,Study2,F,35,17,Study,User,-,,Study/JOL,"Study Phase",3075,,,-1,-1,,,,1
M20317660_HDM,7dtn2s7n55,"Mediated JOLs",1,25,2024-04-17T14:47:18+00:00,3.6649849414825,3,versionB_stim.csv,ReadVersion.csv,Read,Read2,CHISEL,HAMMER,Study2,F,23,51,Study,User,-,,Study/JOL,"Study Phase",3449,,,-1,-1,,,,1
M20317660_HDM,7dtn2s7n55,"Mediated JOLs",1,26,2024-04-17T14:47:22+00:00,4.0147709846497,3,versionB_stim.csv,ReadVersion.csv,Read,Read2,ART,WOLF,Study2,U,38,49,Study,User,-,,Study/JOL,"Study Phase",3777,,,-1,-1,,,,1
M20317660_HDM,7dtn2s7n55,"Mediated JOLs",1,27,2024-04-17T14:47:26+00:00,3.5214169025421,3,versionB_stim.csv,ReadVersion.csv,Read,Read2,CACTUS,PLANT,Study2,F,21,34,Study,User,-,,Study/JOL,"Study Phase",3293,,,-1,-1,,,,1
M20317660_HDM,7dtn2s7n55,"Mediated JOLs",1,28,2024-04-17T14:47:29+00:00,3.2979960441589,3,versionB_stim.csv,ReadVersion.csv,Read,Read2,HAPPY,CAR,Study2,U,37,25,Study,User,-,,Study/JOL,"Study Phase",2963,,,-1,-1,,,,1
M20317660_HDM,7dtn2s7n55,"Mediated JOLs",1,29,2024-04-17T14:47:33+00:00,4.2618689537048,3,versionB_stim.csv,ReadVersion.csv,Read,Read2,ARTERY,BRONZE,Study2,U,48,21,Study,User,-,,Study/JOL,"Study Phase",3997,,,-1,-1,,,,1
M20317660_HDM,7dtn2s7n55,"Mediated JOLs",1,30,2024-04-17T14:47:37+00:00,3.6436371803284,3,versionB_stim.csv,ReadVersion.csv,Read,Read2,RAZOR,MUSCLE,Study2,M,20,19,Study,User,-,,Study/JOL,"Study Phase",3375,,,-1,-1,,,,1
M20317660_HDM,7dtn2s7n55,"Mediated JOLs",1,31,2024-04-17T14:47:41+00:00,3.9549188613892,3,versionB_stim.csv,ReadVersion.csv,Read,Read2,DEATH,BUSINESS,Study2,U,44,47,Study,User,-,,Study/JOL,"Study Phase",3704,,,-1,-1,,,,1
M20317660_HDM,7dtn2s7n55,"Mediated JOLs",1,32,2024-04-17T14:47:46+00:00,4.950147151947,3,versionB_stim.csv,ReadVersion.csv,Read,Read2,DIETARY,SACK,Study2,U,42,24,Study,User,-,,Study/JOL,"Study Phase",4726,,,-1,-1,,,,1
M20317660_HDM,7dtn2s7n55,"Mediated JOLs",1,33,2024-04-17T14:47:49+00:00,3.1338229179382,3,versionB_stim.csv,ReadVersion.csv,Read,Read2,PANTS,COLLAR,Study2,M,8,31,Study,User,-,,Study/JOL,"Study Phase",2836,,,-1,-1,,,,1
M20317660_HDM,7dtn2s7n55,"Mediated JOLs",1,34,2024-04-17T14:47:52+00:00,3.5728929042816,3,versionB_stim.csv,ReadVersion.csv,Read,Read2,INCENSE,SMELL,Study2,F,28,40,Study,User,-,,Study/JOL,"Study Phase",3343,,,-1,-1,,,,1
M20317660_HDM,7dtn2s7n55,"Mediated JOLs",1,35,2024-04-17T14:47:55+00:00,3.0073201656342,3,versionB_stim.csv,ReadVersion.csv,Read,Read2,WINDOW,KNOB,Study2,M,19,20,Study,User,-,,Study/JOL,"Study Phase",2721,,,-1,-1,,,,1
M20317660_HDM,7dtn2s7n55,"Mediated JOLs",1,36,2024-04-17T14:47:58+00:00,2.9317548274994,3,versionB_stim.csv,ReadVersion.csv,Read,Read2,PUSH,CLUTTER,Study2,U,41,22,Study,User,-,,Study/JOL,"Study Phase",2665,,,-1,-1,,,,1
M20317660_HDM,7dtn2s7n55,"Mediated JOLs",1,37,2024-04-17T14:48:01+00:00,2.8197300434113,3,versionB_stim.csv,ReadVersion.csv,Read,Read2,CHILL,COLD,Study2,F,32,29,Study,User,-,,Study/JOL,"Study Phase",2582,,,-1,-1,,,,1
M20317660_HDM,7dtn2s7n55,"Mediated JOLs",1,38,2024-04-17T14:48:04+00:00,2.6708099842072,3,versionB_stim.csv,ReadVersion.csv,Read,Read2,HERD,COW,Study2,F,33,23,Study,User,-,,Study/JOL,"Study Phase",2429,,,-1,-1,,,,1
M20317660_HDM,7dtn2s7n55,"Mediated JOLs",1,39,2024-04-17T14:48:07+00:00,2.8176829814911,3,versionB_stim.csv,ReadVersion.csv,Read,Read2,OVEN,BASKET,Study2,M,16,38,Study,User,-,,Study/JOL,"Study Phase",2567,,,-1,-1,,,,1
M20317660_HDM,7dtn2s7n55,"Mediated JOLs",1,40,2024-04-17T14:48:09+00:00,2.3856980800629,3,versionB_stim.csv,ReadVersion.csv,Read,Read2,NURSE,LAWYER,Study2,M,11,8,Study,User,-,,Study/JOL,"Study Phase",2111,,,-1,-1,,,,1
M20317660_HDM,7dtn2s7n55,"Mediated JOLs",1,41,2024-04-17T14:48:11+00:00,2.3707869052887,3,versionB_stim.csv,ReadVersion.csv,Read,Read2,BLAZE,FIRE,Study2,F,26,11,Study,User,-,,Study/JOL,"Study Phase",2076,,,-1,-1,,,,1
M20317660_HDM,7dtn2s7n55,"Mediated JOLs",1,42,2024-04-17T14:48:15+00:00,3.3719041347504,3,versionB_stim.csv,ReadVersion.csv,Read,Read2,SICK,HIDE,Study2,U,45,50,Study,User,-,,Study/JOL,"Study Phase",3163,,,-1,-1,,,,1
M20317660_HDM,7dtn2s7n55,"Mediated JOLs",1,43,2024-04-17T14:48:18+00:00,3.0228219032288,3,versionB_stim.csv,ReadVersion.csv,Read,Read2,MIRROR,CHILDREN,Study2,U,49,30,Study,User,-,,Study/JOL,"Study Phase",2734,,,-1,-1,,,,1
M20317660_HDM,7dtn2s7n55,"Mediated JOLs",1,44,2024-04-17T14:48:20+00:00,2.6234641075134,3,versionB_stim.csv,ReadVersion.csv,Read,Read2,CHERRY,RED,Study2,F,25,39,Study,User,-,,Study/JOL,"Study Phase",2378,,,-1,-1,,,,1
M20317660_HDM,7dtn2s7n55,"Mediated JOLs",1,45,2024-04-17T14:48:23+00:00,3.0817589759827,3,versionB_stim.csv,ReadVersion.csv,Read,Read2,SOAP,DRINK,Study2,M,12,26,Study,User,-,,Study/JOL,"Study Phase",2850,,,-1,-1,,,,1
M20317660_HDM,7dtn2s7n55,"Mediated JOLs",1,46,2024-04-17T14:48:27+00:00,3.8501830101013,3,versionB_stim.csv,ReadVersion.csv,Read,Read2,GRILL,THIGH,Study2,M,17,44,Study,User,-,,Study/JOL,"Study Phase",3454,,,-1,-1,,,,1
M20317660_HDM,7dtn2s7n55,"Mediated JOLs",1,47,2024-04-17T14:48:30+00:00,2.962856054306,3,versionB_stim.csv,ReadVersion.csv,Read,Read2,FEUD,FIGHT,Study2,F,31,42,Study,User,-,,Study/JOL,"Study Phase",2650,,,-1,-1,,,,1
M20317660_HDM,7dtn2s7n55,"Mediated JOLs",1,48,2024-04-17T14:48:33+00:00,2.949117898941,3,versionB_stim.csv,ReadVersion.csv,Read,Read2,BOTH,OUNCE,Study2,U,47,13,Study,User,-,,Study/JOL,"Study Phase",2704,,,-1,-1,,,,1
M20317660_HDM,7dtn2s7n55,"Mediated JOLs",1,49,2024-04-17T14:48:36+00:00,2.9646351337433,3,versionB_stim.csv,ReadVersion.csv,Read,Read2,SCHOOL,STOP,Study2,M,7,43,Study,User,-,,Study/JOL,"Study Phase",2706,,,-1,-1,,,,1
M20317660_HDM,7dtn2s7n55,"Mediated JOLs",1,50,2024-04-17T14:48:39+00:00,2.7684919834137,3,versionB_stim.csv,ReadVersion.csv,Read,Read2,WASP,BUG,Study2,F,34,12,Study,User,-,,Study/JOL,"Study Phase",2521,,,-1,-1,,,,1
M20317660_HDM,7dtn2s7n55,"Mediated JOLs",1,51,2024-04-17T14:48:42+00:00,2.6613118648529,3,versionB_stim.csv,ReadVersion.csv,Read,Read2,REALITY,ISLAND,Study2,M,9,27,Study,User,-,,Study/JOL,"Study Phase",2424,,,-1,-1,,,,1
M20317660_HDM,7dtn2s7n55,"Mediated JOLs",1,52,2024-04-17T14:48:44+00:00,2.5611660480499,3,versionB_stim.csv,ReadVersion.csv,Read,Read2,HORNET,STING,Study2,F,30,10,Study,User,-,,Study/JOL,"Study Phase",2334,,,-1,-1,,,,1
M20317660_HDM,7dtn2s7n55,"Mediated JOLs",1,53,2024-04-17T14:48:47+00:00,2.650356054306,3,versionB_stim.csv,ReadVersion.csv,Read,Read2,THING,STUFF,BUFFER2,Buffer,110,111,Study,User,-,,Study/JOL,BUFFER2,2351,,,-1,-1,,,,1
M20317660_HDM,7dtn2s7n55,"Mediated JOLs",1,54,2024-04-17T14:48:50+00:00,2.98703789711,3,versionB_stim.csv,ReadVersion.csv,Read,Read2,SHERRIF,POLICE,BUFFER2,Buffer,107,110,Study,User,-,,Study/JOL,BUFFER2,2726,,,-1,-1,,,,1
M20317660_HDM,7dtn2s7n55,"Mediated JOLs",1,55,2024-04-17T14:48:52+00:00,2.5121841430664,3,versionB_stim.csv,ReadVersion.csv,Read,Read2,GEESE,GOOSE,BUFFER2,Buffer,106,108,Study,User,-,,Study/JOL,BUFFER2,2252,,,-1,-1,,,,1
M20317660_HDM,7dtn2s7n55,"Mediated JOLs",1,56,2024-04-17T14:48:55+00:00,3.1190149784088,3,versionB_stim.csv,ReadVersion.csv,Read,Read2,PITCHER,CATCHER,BUFFER1,Buffer,57,57,Study,User,-,,Study/JOL,BUFFER2,2877,,,-1,-1,,,,1
M20317660_HDM,7dtn2s7n55,"Mediated JOLs",1,57,2024-04-17T14:48:59+00:00,3.1642549037933,3,versionB_stim.csv,ReadVersion.csv,Read,Read2,SCARE,FRIGHT,BUFFER1,Buffer,59,59,Study,User,-,,Study/JOL,BUFFER2,2892,,,-1,-1,,,,1
M20317660_HDM,7dtn2s7n55,"Mediated JOLs",1,58,2024-04-17T14:49:01+00:00,2.250107049942,3,versionB_stim.csv,ReadVersion.csv,Read,Read2,,,,,,0,Instruct,User,-,"You have completed this section. Please press Enter.",Filler_Instruction,Instruct2,2021,,,-1,-1,,,,1
M20317660_HDM,7dtn2s7n55,"Mediated JOLs",1,59,2024-04-17T14:51:01+00:00,120.45763087273,3,versionB_stim.csv,ReadVersion.csv,Read,Read2,,,,,,0,FreeRecall,120,120,"Please list the 50 US states in alphabetical order. The task will automatically advance to the next screen after two minutes.",,Filler1,120008,"Alabama, Arkansas, California, Colorado, Florida, Georgia, Idaho, Kansas, Louisiana, Massachusetts, Montana, Nebraska, North Da ",0,3655,119858,0,0,,1
M20317660_HDM,7dtn2s7n55,"Mediated JOLs",1,60,2024-04-17T14:51:13+00:00,12.031820058823,3,versionB_stim.csv,ReadVersion.csv,Read,Read2,,,,,,0,Instruct,-,10,"You will now be presented with the first word from each of the previously studied item pairs. Please type the missing word. If you do not know the word, you may guess or press Enter to skip forward to the next pair.",,Instruct3,10585,,,-1,-1,,,,1
M20317660_HDM,7dtn2s7n55,"Mediated JOLs",1,61,2024-04-17T14:51:22+00:00,8.1673719882965,3,versionB_stim.csv,ReadVersion.csv,Read,Read2,OVEN,BASKET,Study2,M,16,38,Test,User,-,,Recall,Recall1,7842,Bake,80,4254,5356,0,1,,1
M20317660_HDM,7dtn2s7n55,"Mediated JOLs",1,62,2024-04-17T14:51:27+00:00,5.0934100151062,3,versionB_stim.csv,ReadVersion.csv,Read,Read2,EYES,SMELL,Study2,M,10,35,Test,User,-,,Recall,Recall1,4787,Sight,20,2270,3028,0,0,,1
M20317660_HDM,7dtn2s7n55,"Mediated JOLs",1,63,2024-04-17T14:51:32+00:00,5.7637350559235,3,versionB_stim.csv,ReadVersion.csv,Read,Read2,RAKE,SEED,Study2,M,14,7,Test,User,-,,Recall,Recall1,5507,Seed,100,3402,4051,1,1,,1
M20317660_HDM,7dtn2s7n55,"Mediated JOLs",1,64,2024-04-17T14:51:38+00:00,5.4212830066681,3,versionB_stim.csv,ReadVersion.csv,Read,Read2,CACTUS,PLANT,Study2,F,21,34,Test,User,-,,Recall,Recall1,5111,Plant,100,2496,3740,1,1,,1
M20317660_HDM,7dtn2s7n55,"Mediated JOLs",1,65,2024-04-17T14:51:43+00:00,4.7932689189911,3,versionB_stim.csv,ReadVersion.csv,Read,Read2,CHILL,COLD,Study2,F,32,29,Test,User,-,,Recall,Recall1,4499,Freeze,0,2047,3193,0,0,,1
M20317660_HDM,7dtn2s7n55,"Mediated JOLs",1,66,2024-04-17T14:51:46+00:00,3.0701770782471,3,versionB_stim.csv,ReadVersion.csv,Read,Read2,CHERRY,RED,Study2,F,25,39,Test,User,-,,Recall,Recall1,2846,Red,100,1691,2038,1,1,,1
M20317660_HDM,7dtn2s7n55,"Mediated JOLs",1,67,2024-04-17T14:51:54+00:00,8.2694680690765,3,versionB_stim.csv,ReadVersion.csv,Read,Read2,STRONG,ACCIDENT,Study2,U,39,16,Test,User,-,,Recall,Recall1,8013,,0,-1,-1,0,0,,1
M20317660_HDM,7dtn2s7n55,"Mediated JOLs",1,68,2024-04-17T14:51:57+00:00,3.1960179805756,3,versionB_stim.csv,ReadVersion.csv,Read,Read2,HERD,COW,Study2,F,33,23,Test,User,-,,Recall,Recall1,2862,,0,-1,-1,0,0,,1
M20317660_HDM,7dtn2s7n55,"Mediated JOLs",1,69,2024-04-17T14:52:02+00:00,4.4276688098907,3,versionB_stim.csv,ReadVersion.csv,Read,Read2,NURSE,LAWYER,Study2,M,11,8,Test,User,-,,Recall,Recall1,4178,Lawyer,100,1886,3100,1,1,,1
M20317660_HDM,7dtn2s7n55,"Mediated JOLs",1,70,2024-04-17T14:52:05+00:00,3.3822121620178,3,versionB_stim.csv,ReadVersion.csv,Read,Read2,CHOP,CUT,Study2,F,22,28,Test,User,-,,Recall,Recall1,3128,Cut,100,1667,2062,1,1,,1
M20317660_HDM,7dtn2s7n55,"Mediated JOLs",1,71,2024-04-17T14:52:09+00:00,3.8101830482483,3,versionB_stim.csv,ReadVersion.csv,Read,Read2,BENCH,HORN,Study2,U,43,45,Test,User,-,,Recall,Recall1,3480,,0,-1,-1,0,0,,1
M20317660_HDM,7dtn2s7n55,"Mediated JOLs",1,72,2024-04-17T14:52:13+00:00,4.1526699066162,3,versionB_stim.csv,ReadVersion.csv,Read,Read2,GRILL,THIGH,Study2,M,17,44,Test,User,-,,Recall,Recall1,3864,Thigh,100,2088,2790,1,1,,1
M20317660_HDM,7dtn2s7n55,"Mediated JOLs",1,73,2024-04-17T14:52:18+00:00,5.5301671028137,3,versionB_stim.csv,ReadVersion.csv,Read,Read2,SCHOOL,STOP,Study2,M,7,43,Test,User,-,,Recall,Recall1,5261,learn,0,3425,4218,0,0,,1
M20317660_HDM,7dtn2s7n55,"Mediated JOLs",1,74,2024-04-17T14:52:22+00:00,3.6861999034882,3,versionB_stim.csv,ReadVersion.csv,Read,Read2,VALLEY,PEAK,Study2,M,18,18,Test,User,-,,Recall,Recall1,3413,Peak,100,1925,2386,1,1,,1
M20317660_HDM,7dtn2s7n55,"Mediated JOLs",1,75,2024-04-17T14:52:27+00:00,4.5588998794556,3,versionB_stim.csv,ReadVersion.csv,Read,Read2,CASH,LEG,Study2,U,50,41,Test,User,-,,Recall,Recall1,4320,Card,0,2441,3217,0,0,,1
M20317660_HDM,7dtn2s7n55,"Mediated JOLs",1,76,2024-04-17T14:52:31+00:00,4.1695461273193,3,versionB_stim.csv,ReadVersion.csv,Read,Read2,RAZOR,MUSCLE,Study2,M,20,19,Test,User,-,,Recall,Recall1,3790,Sharp,18.181818181818,1520,2377,0,0,,1
M20317660_HDM,7dtn2s7n55,"Mediated JOLs",1,77,2024-04-17T14:52:34+00:00,3.5189609527588,3,versionB_stim.csv,ReadVersion.csv,Read,Read2,FEUD,FIGHT,Study2,F,31,42,Test,User,-,,Recall,Recall1,3282,Fight,100,1353,1994,1,1,,1
M20317660_HDM,7dtn2s7n55,"Mediated JOLs",1,78,2024-04-17T14:52:40+00:00,5.92214012146,3,versionB_stim.csv,ReadVersion.csv,Read,Read2,HORNET,STING,Study2,F,30,10,Test,User,-,,Recall,Recall1,5618,Sting,100,1646,4412,1,1,,1
M20317660_HDM,7dtn2s7n55,"Mediated JOLs",1,79,2024-04-17T14:52:42+00:00,2.0199029445648,3,versionB_stim.csv,ReadVersion.csv,Read,Read2,LEASE,TOIL,Study2,U,46,14,Test,User,-,,Recall,Recall1,1777,,0,-1,-1,0,0,,1
M20317660_HDM,7dtn2s7n55,"Mediated JOLs",1,80,2024-04-17T14:52:46+00:00,3.6248550415039,3,versionB_stim.csv,ReadVersion.csv,Read,Read2,ATTIRE,CLOTHES,Study2,F,24,32,Test,User,-,,Recall,Recall1,3391,Clothes,100,1473,2532,1,1,,1
M20317660_HDM,7dtn2s7n55,"Mediated JOLs",1,81,2024-04-17T14:52:51+00:00,4.9156939983368,3,versionB_stim.csv,ReadVersion.csv,Read,Read2,KING,VASE,Study2,U,36,33,Test,User,-,,Recall,Recall1,4636,,0,-1,-1,0,0,,1
M20317660_HDM,7dtn2s7n55,"Mediated JOLs",1,82,2024-04-17T14:52:54+00:00,2.8373599052429,3,versionB_stim.csv,ReadVersion.csv,Read,Read2,BLAZE,FIRE,Study2,F,26,11,Test,User,-,,Recall,Recall1,2569,,0,-1,-1,0,0,,1
M20317660_HDM,7dtn2s7n55,"Mediated JOLs",1,83,2024-04-17T14:52:58+00:00,4.5099329948425,3,versionB_stim.csv,ReadVersion.csv,Read,Read2,PANTS,COLLAR,Study2,M,8,31,Test,User,-,,Recall,Recall1,4255,,0,-1,-1,0,0,,1
M20317660_HDM,7dtn2s7n55,"Mediated JOLs",1,84,2024-04-17T14:53:02+00:00,3.6801419258118,3,versionB_stim.csv,ReadVersion.csv,Read,Read2,WASP,BUG,Study2,F,34,12,Test,User,-,,Recall,Recall1,3386,Sting,25,1336,2153,0,0,,1
M20317660_HDM,7dtn2s7n55,"Mediated JOLs",1,85,2024-04-17T14:53:07+00:00,5.0779521465302,3,versionB_stim.csv,ReadVersion.csv,Read,Read2,BOTH,OUNCE,Study2,U,47,13,Test,User,-,,Recall,Recall1,4845,Neither,33.333333333333,2618,3955,0,0,,1
M20317660_HDM,7dtn2s7n55,"Mediated JOLs",1,86,2024-04-17T14:53:11+00:00,4.5017259120941,3,versionB_stim.csv,ReadVersion.csv,Read,Read2,DOCUMENT,PAPER,Study2,F,27,15,Test,User,-,,Recall,Recall1,4144,Paper,100,1435,3137,1,1,,1
M20317660_HDM,7dtn2s7n55,"Mediated JOLs",1,87,2024-04-17T14:53:14+00:00,2.2144060134888,3,versionB_stim.csv,ReadVersion.csv,Read,Read2,TRAP,CAVE,Study2,M,15,48,Test,User,-,,Recall,Recall1,1970,,0,-1,-1,0,0,,1
M20317660_HDM,7dtn2s7n55,"Mediated JOLs",1,88,2024-04-17T14:53:18+00:00,3.8357520103455,3,versionB_stim.csv,ReadVersion.csv,Read,Read2,SICK,HIDE,Study2,U,45,50,Test,User,-,,Recall,Recall1,3610,Ill,28.571428571429,1848,2215,0,0,,1
M20317660_HDM,7dtn2s7n55,"Mediated JOLs",1,89,2024-04-17T14:53:22+00:00,4.5702140331268,3,versionB_stim.csv,ReadVersion.csv,Read,Read2,MIRROR,CHILDREN,Study2,U,49,30,Test,User,-,,Recall,Recall1,4307,Children,100,1921,3211,1,1,,1
M20317660_HDM,7dtn2s7n55,"Mediated JOLs",1,90,2024-04-17T14:53:25+00:00,3.2321178913116,3,versionB_stim.csv,ReadVersion.csv,Read,Read2,PUSH,CLUTTER,Study2,U,41,22,Test,User,-,,Recall,Recall1,2977,Shove,16.666666666667,1523,2270,0,0,,1
M20317660_HDM,7dtn2s7n55,"Mediated JOLs",1,91,2024-04-17T14:53:28+00:00,3.0137209892273,3,versionB_stim.csv,ReadVersion.csv,Read,Read2,BRIDGE,WATER,Study2,F,35,17,Test,User,-,,Recall,Recall1,2759,Water,100,1151,1694,1,1,,1
M20317660_HDM,7dtn2s7n55,"Mediated JOLs",1,92,2024-04-17T14:53:33+00:00,4.2530090808868,3,versionB_stim.csv,ReadVersion.csv,Read,Read2,HEAVY,FEATHER,Study2,M,13,37,Test,User,-,,Recall,Recall1,3992,Feather,100,2035,3396,1,1,,1
M20317660_HDM,7dtn2s7n55,"Mediated JOLs",1,93,2024-04-17T14:53:37+00:00,4.7290511131287,3,versionB_stim.csv,ReadVersion.csv,Read,Read2,ARTERY,BRONZE,Study2,U,48,21,Test,User,-,,Recall,Recall1,4490,Bronze,100,2746,3930,1,1,,1
M20317660_HDM,7dtn2s7n55,"Mediated JOLs",1,94,2024-04-17T14:53:46+00:00,9.0878620147705,3,versionB_stim.csv,ReadVersion.csv,Read,Read2,SUGAR,RIDDLE,Study2,U,40,36,Test,User,-,,Recall,Recall1,8803,Sweet,18.181818181818,6257,8043,0,0,,1
M20317660_HDM,7dtn2s7n55,"Mediated JOLs",1,95,2024-04-17T14:53:51+00:00,4.96036195755,3,versionB_stim.csv,ReadVersion.csv,Read,Read2,LEAGUE,BASEBALL,Study2,F,29,46,Test,User,-,,Recall,Recall1,4643,Baseball,100,1655,3651,1,1,,1
M20317660_HDM,7dtn2s7n55,"Mediated JOLs",1,96,2024-04-17T14:53:57+00:00,6.0457448959351,3,versionB_stim.csv,ReadVersion.csv,Read,Read2,SUMMER,SNOW,Study2,M,6,9,Test,User,-,,Recall,Recall1,5752,Spring,40,2838,5040,0,0,,1
M20317660_HDM,7dtn2s7n55,"Mediated JOLs",1,97,2024-04-17T14:54:01+00:00,3.1593110561371,3,versionB_stim.csv,ReadVersion.csv,Read,Read2,SOAP,DRINK,Study2,M,12,26,Test,User,-,,Recall,Recall1,2920,Clean,20,1485,2172,0,0,,1
M20317660_HDM,7dtn2s7n55,"Mediated JOLs",1,98,2024-04-17T14:54:05+00:00,4.4929609298706,3,versionB_stim.csv,ReadVersion.csv,Read,Read2,REALITY,ISLAND,Study2,M,9,27,Test,User,-,,Recall,Recall1,4191,Island,100,2049,3619,1,1,,1
M20317660_HDM,7dtn2s7n55,"Mediated JOLs",1,99,2024-04-17T14:54:14+00:00,8.9808461666107,3,versionB_stim.csv,ReadVersion.csv,Read,Read2,DIETARY,SACK,Study2,U,42,24,Test,User,-,,Recall,Recall1,8737,Stomach,54.545454545455,5717,7445,0,0,,1
M20317660_HDM,7dtn2s7n55,"Mediated JOLs",1,100,2024-04-17T14:54:17+00:00,2.5263199806213,3,versionB_stim.csv,ReadVersion.csv,Read,Read2,HAPPY,CAR,Study2,U,37,25,Test,User,-,,Recall,Recall1,2285,Sad,33.333333333333,1386,1853,0,0,,1
M20317660_HDM,7dtn2s7n55,"Mediated JOLs",1,101,2024-04-17T14:54:22+00:00,5.6528279781342,3,versionB_stim.csv,ReadVersion.csv,Read,Read2,DEATH,BUSINESS,Study2,U,44,47,Test,User,-,,Recall,Recall1,5390,Business,100,2365,4915,1,1,,1
M20317660_HDM,7dtn2s7n55,"Mediated JOLs",1,102,2024-04-17T14:54:25+00:00,2.9226260185242,3,versionB_stim.csv,ReadVersion.csv,Read,Read2,INCENSE,SMELL,Study2,F,28,40,Test,User,-,,Recall,Recall1,2677,Smell,100,1278,1931,1,1,,1
M20317660_HDM,7dtn2s7n55,"Mediated JOLs",1,103,2024-04-17T14:54:28+00:00,2.9466469287872,3,versionB_stim.csv,ReadVersion.csv,Read,Read2,CHISEL,HAMMER,Study2,F,23,51,Test,User,-,,Recall,Recall1,2677,Hammer,100,1315,2151,1,1,,1
M20317660_HDM,7dtn2s7n55,"Mediated JOLs",1,104,2024-04-17T14:54:34+00:00,5.7024190425873,3,versionB_stim.csv,ReadVersion.csv,Read,Read2,ART,WOLF,Study2,U,38,49,Test,User,-,,Recall,Recall1,5378,Create,0,2046,4894,0,0,,1
M20317660_HDM,7dtn2s7n55,"Mediated JOLs",1,105,2024-04-17T14:54:38+00:00,4.0554728507996,3,versionB_stim.csv,ReadVersion.csv,Read,Read2,WINDOW,KNOB,Study2,M,19,20,Test,User,-,,Recall,Recall1,3782,Door,25,2677,3125,0,0,,1
M20317660_HDM,7dtn2s7n55,"Mediated JOLs",1,106,2024-04-17T14:54:49+00:00,11.015477180481,3,versionB_stim.csv,ReadVersion.csv,Read,Read2,,,,,,0,Instruct,-,10,"You will now be presented with a new set of word pairs. Please study each pair. Remember that your memory will be tested! When finished, press Enter to move to the next pair.",Initial_Instruct,Instruct4,10761,,,-1,-1,,,,1
M20317660_HDM,7dtn2s7n55,"Mediated JOLs",1,107,2024-04-17T14:54:51+00:00,1.7916388511658,3,versionB_stim.csv,ReadVersion.csv,Read,Read2,,,,,,0,Instruct,User,-,"Press Enter when you are readty to begin",,Instruct11,1497,,,-1,-1,,,,1
M20317660_HDM,7dtn2s7n55,"Mediated JOLs",1,108,2024-04-17T14:54:55+00:00,4.3538119792938,3,versionB_stim.csv,ReadVersion.csv,Read,Read2,SHRIMP,FISH,BUFFER4,Buffer,53,53,Study,User,-,,Study/JOL,BUFFER2,4134,,,-1,-1,,,,1
M20317660_HDM,7dtn2s7n55,"Mediated JOLs",1,109,2024-04-17T14:54:59+00:00,4.2263190746307,3,versionB_stim.csv,ReadVersion.csv,Read,Read2,MOON,SPACE,BUFFER2,Buffer,109,109,Study,User,-,,Study/JOL,BUFFER2,3964,,,-1,-1,,,,1
M20317660_HDM,7dtn2s7n55,"Mediated JOLs",1,110,2024-04-17T14:55:04+00:00,4.5623281002045,3,versionB_stim.csv,ReadVersion.csv,Read,Read2,SPACE,JAM,BUFFER1,Buffer,60,60,Study,User,-,,Study/JOL,BUFFER2,4265,,,-1,-1,,,,1
M20317660_HDM,7dtn2s7n55,"Mediated JOLs",1,111,2024-04-17T14:55:08+00:00,3.9759838581085,3,versionB_stim.csv,ReadVersion.csv,Read,Read2,PEANUT,BUTTER,BUFFER1,Buffer,58,58,Study,User,-,,Study/JOL,BUFFER2,3700,,,-1,-1,,,,1
M20317660_HDM,7dtn2s7n55,"Mediated JOLs",1,112,2024-04-17T14:55:12+00:00,3.8843729496002,3,versionB_stim.csv,ReadVersion.csv,Read,Read2,TREES,GREEN,BUFFER1,Buffer,56,61,Study,User,-,,Study/JOL,BUFFER2,3545,,,-1,-1,,,,1
M20317660_HDM,7dtn2s7n55,"Mediated JOLs",1,113,2024-04-17T14:55:15+00:00,3.7366890907288,3,versionB_stim.csv,ReadVersion.csv,Read,Read2,WAGE,MONEY,Study1,F,77,64,Study,User,-,,Study/JOL,"Study Phase2",3433,,,-1,-1,,,,1
M20317660_HDM,7dtn2s7n55,"Mediated JOLs",1,114,2024-04-17T14:55:19+00:00,3.9785959720612,3,versionB_stim.csv,ReadVersion.csv,Read,Read2,TREE,SYRUP,Study1,M,66,68,Study,User,-,,Study/JOL,"Study Phase2",3607,,,-1,-1,,,,1
M20317660_HDM,7dtn2s7n55,"Mediated JOLs",1,115,2024-04-17T14:55:23+00:00,3.1696100234985,3,versionB_stim.csv,ReadVersion.csv,Read,Read2,SOON,BELT,Study1,U,101,71,Study,User,-,,Study/JOL,"Study Phase2",2912,,,-1,-1,,,,1
M20317660_HDM,7dtn2s7n55,"Mediated JOLs",1,116,2024-04-17T14:55:26+00:00,3.0027320384979,3,versionB_stim.csv,ReadVersion.csv,Read,Read2,CAKE,HAND,Study1,U,104,72,Study,User,-,,Study/JOL,"Study Phase2",2683,,,-1,-1,,,,1
M20317660_HDM,7dtn2s7n55,"Mediated JOLs",1,117,2024-04-17T14:55:28+00:00,2.6823260784149,3,versionB_stim.csv,ReadVersion.csv,Read,Read2,STRETCH,CLOTH,Study1,U,92,95,Study,User,-,,Study/JOL,"Study Phase2",2459,,,-1,-1,,,,1
M20317660_HDM,7dtn2s7n55,"Mediated JOLs",1,118,2024-04-17T14:55:31+00:00,2.3942859172821,3,versionB_stim.csv,ReadVersion.csv,Read,Read2,FUZZY,BANG,Study1,U,105,92,Study,User,-,,Study/JOL,"Study Phase2",2080,,,-1,-1,,,,1
M20317660_HDM,7dtn2s7n55,"Mediated JOLs",1,119,2024-04-17T14:55:33+00:00,2.6799099445343,3,versionB_stim.csv,ReadVersion.csv,Read,Read2,HYGIENE,CLEAN,Study1,F,83,97,Study,User,-,,Study/JOL,"Study Phase2",2437,,,-1,-1,,,,1
M20317660_HDM,7dtn2s7n55,"Mediated JOLs",1,120,2024-04-17T14:55:36+00:00,2.3550350666046,3,versionB_stim.csv,ReadVersion.csv,Read,Read2,SCALP,HEAD,Study1,F,78,62,Study,User,-,,Study/JOL,"Study Phase2",2127,,,-1,-1,,,,1
M20317660_HDM,7dtn2s7n55,"Mediated JOLs",1,121,2024-04-17T14:55:38+00:00,2.0718560218811,3,versionB_stim.csv,ReadVersion.csv,Read,Read2,AFFECTION,LOVE,Study1,F,86,66,Study,User,-,,Study/JOL,"Study Phase2",1851,,,-1,-1,,,,1
M20317660_HDM,7dtn2s7n55,"Mediated JOLs",1,122,2024-04-17T14:55:40+00:00,2.4319159984589,3,versionB_stim.csv,ReadVersion.csv,Read,Read2,WEDDING,FINGER,Study1,M,72,85,Study,User,-,,Study/JOL,"Study Phase2",2086,,,-1,-1,,,,1
M20317660_HDM,7dtn2s7n55,"Mediated JOLs",1,123,2024-04-17T14:55:42+00:00,2.1797358989716,3,versionB_stim.csv,ReadVersion.csv,Read,Read2,LITTER,TRASH,Study1,F,76,100,Study,User,-,,Study/JOL,"Study Phase2",1891,,,-1,-1,,,,1
M20317660_HDM,7dtn2s7n55,"Mediated JOLs",1,124,2024-04-17T14:55:44+00:00,1.8489820957184,3,versionB_stim.csv,ReadVersion.csv,Read,Read2,BEACH,BOX,Study1,M,62,94,Study,User,-,,Study/JOL,"Study Phase2",1612,,,-1,-1,,,,1
M20317660_HDM,7dtn2s7n55,"Mediated JOLs",1,125,2024-04-17T14:55:46+00:00,1.8563499450684,3,versionB_stim.csv,ReadVersion.csv,Read,Read2,SWAN,BIRD,Study1,F,81,93,Study,User,-,,Study/JOL,"Study Phase2",1563,,,-1,-1,,,,1
M20317660_HDM,7dtn2s7n55,"Mediated JOLs",1,126,2024-04-17T14:55:48+00:00,1.9308259487152,3,versionB_stim.csv,ReadVersion.csv,Read,Read2,ORCHID,FLOWER,Study1,F,89,80,Study,User,-,,Study/JOL,"Study Phase2",1650,,,-1,-1,,,,1
M20317660_HDM,7dtn2s7n55,"Mediated JOLs",1,127,2024-04-17T14:55:50+00:00,1.8481571674347,3,versionB_stim.csv,ReadVersion.csv,Read,Read2,BAT,BOUNCE,Study1,M,67,83,Study,User,-,,Study/JOL,"Study Phase2",1584,,,-1,-1,,,,1
M20317660_HDM,7dtn2s7n55,"Mediated JOLs",1,128,2024-04-17T14:55:52+00:00,2.131119966507,3,versionB_stim.csv,ReadVersion.csv,Read,Read2,ROOT,PLANT,Study1,F,80,67,Study,User,-,,Study/JOL,"Study Phase2",1753,,,-1,-1,,,,1
M20317660_HDM,7dtn2s7n55,"Mediated JOLs",1,129,2024-04-17T14:55:54+00:00,1.6599998474121,3,versionB_stim.csv,ReadVersion.csv,Read,Read2,MULE,DONKEY,Study1,F,79,96,Study,User,-,,Study/JOL,"Study Phase2",1399,,,-1,-1,,,,1
M20317660_HDM,7dtn2s7n55,"Mediated JOLs",1,130,2024-04-17T14:55:55+00:00,1.3994541168213,3,versionB_stim.csv,ReadVersion.csv,Read,Read2,SIP,DRINK,Study1,F,87,78,Study,User,-,,Study/JOL,"Study Phase2",1182,,,-1,-1,,,,1
M20317660_HDM,7dtn2s7n55,"Mediated JOLs",1,131,2024-04-17T14:55:57+00:00,1.7320430278778,3,versionB_stim.csv,ReadVersion.csv,Read,Read2,DAY,DARK,Study1,M,73,74,Study,User,-,,Study/JOL,"Study Phase2",1451,,,-1,-1,,,,1
M20317660_HDM,7dtn2s7n55,"Mediated JOLs",1,132,2024-04-17T14:55:58+00:00,1.4244458675385,3,versionB_stim.csv,ReadVersion.csv,Read,Read2,MAZE,PHONE,Study1,U,97,75,Study,User,-,,Study/JOL,"Study Phase2",1174,,,-1,-1,,,,1
M20317660_HDM,7dtn2s7n55,"Mediated JOLs",1,133,2024-04-17T14:56:00+00:00,1.3727309703827,3,versionB_stim.csv,ReadVersion.csv,Read,Read2,NAP,SLEEP,Study1,F,84,89,Study,User,-,,Study/JOL,"Study Phase2",1089,,,-1,-1,,,,1
M20317660_HDM,7dtn2s7n55,"Mediated JOLs",1,134,2024-04-17T14:56:01+00:00,1.2257630825043,3,versionB_stim.csv,ReadVersion.csv,Read,Read2,GIVE,STEAK,Study1,U,93,106,Study,User,-,,Study/JOL,"Study Phase2",976,,,-1,-1,,,,1
M20317660_HDM,7dtn2s7n55,"Mediated JOLs",1,135,2024-04-17T14:56:02+00:00,1.2240149974823,3,versionB_stim.csv,ReadVersion.csv,Read,Read2,CEILING,CARPET,Study1,M,70,63,Study,User,-,,Study/JOL,"Study Phase2",1001,,,-1,-1,,,,1
M20317660_HDM,7dtn2s7n55,"Mediated JOLs",1,136,2024-04-17T14:56:05+00:00,3.345351934433,3,versionB_stim.csv,ReadVersion.csv,Read,Read2,LION,STRIPES,Study1,M,61,86,Study,User,-,,Study/JOL,"Study Phase2",1813,,,-1,-1,,,,1
M20317660_HDM,7dtn2s7n55,"Mediated JOLs",1,137,2024-04-17T14:56:07+00:00,2.0543251037598,3,versionB_stim.csv,ReadVersion.csv,Read,Read2,SHELL,SHAKE,Study1,U,98,65,Study,User,-,,Study/JOL,"Study Phase2",1774,,,-1,-1,,,,1
M20317660_HDM,7dtn2s7n55,"Mediated JOLs",1,138,2024-04-17T14:56:09+00:00,1.7545239925385,3,versionB_stim.csv,ReadVersion.csv,Read,Read2,TUNA,FISH,Study1,F,90,82,Study,User,-,,Study/JOL,"Study Phase2",1480,,,-1,-1,,,,1
M20317660_HDM,7dtn2s7n55,"Mediated JOLs",1,139,2024-04-17T14:56:11+00:00,1.370521068573,3,versionB_stim.csv,ReadVersion.csv,Read,Read2,MEAT,KEYS,Study1,U,96,70,Study,User,-,,Study/JOL,"Study Phase2",1076,,,-1,-1,,,,1
M20317660_HDM,7dtn2s7n55,"Mediated JOLs",1,140,2024-04-17T14:56:12+00:00,1.7190239429474,3,versionB_stim.csv,ReadVersion.csv,Read,Read2,HARD,COTTON,Study1,M,75,103,Study,User,-,,Study/JOL,"Study Phase2",1456,,,-1,-1,,,,1
M20317660_HDM,7dtn2s7n55,"Mediated JOLs",1,141,2024-04-17T14:56:14+00:00,1.8217709064484,3,versionB_stim.csv,ReadVersion.csv,Read,Read2,MIRROR,MAROON,Study1,U,91,77,Study,User,-,,Study/JOL,"Study Phase2",1594,,,-1,-1,,,,1
M20317660_HDM,7dtn2s7n55,"Mediated JOLs",1,142,2024-04-17T14:56:16+00:00,1.7166831493378,3,versionB_stim.csv,ReadVersion.csv,Read,Read2,WORD,SENTENCE,Study1,F,82,91,Study,User,-,,Study/JOL,"Study Phase2",1456,,,-1,-1,,,,1
M20317660_HDM,7dtn2s7n55,"Mediated JOLs",1,143,2024-04-17T14:56:17+00:00,1.5734260082245,3,versionB_stim.csv,ReadVersion.csv,Read,Read2,KEYS,ROD,Study1,U,100,79,Study,User,-,,Study/JOL,"Study Phase2",1308,,,-1,-1,,,,1
M20317660_HDM,7dtn2s7n55,"Mediated JOLs",1,144,2024-04-17T14:56:19+00:00,1.5165109634399,3,versionB_stim.csv,ReadVersion.csv,Read,Read2,VEHICLE,CHARM,Study1,U,95,81,Study,User,-,,Study/JOL,"Study Phase2",1270,,,-1,-1,,,,1
M20317660_HDM,7dtn2s7n55,"Mediated JOLs",1,145,2024-04-17T14:56:20+00:00,1.5040879249573,3,versionB_stim.csv,ReadVersion.csv,Read,Read2,BIRTHDAY,PIE,Study1,M,64,99,Study,User,-,,Study/JOL,"Study Phase2",1199,,,-1,-1,,,,1
M20317660_HDM,7dtn2s7n55,"Mediated JOLs",1,146,2024-04-17T14:56:22+00:00,1.5249469280243,3,versionB_stim.csv,ReadVersion.csv,Read,Read2,TEMPERATURE,MORNING,Study1,U,103,90,Study,User,-,,Study/JOL,"Study Phase2",1269,,,-1,-1,,,,1
M20317660_HDM,7dtn2s7n55,"Mediated JOLs",1,147,2024-04-17T14:56:24+00:00,1.6601810455322,3,versionB_stim.csv,ReadVersion.csv,Read,Read2,CRY,BOTTLE,Study1,M,71,76,Study,User,-,,Study/JOL,"Study Phase2",1407,,,-1,-1,,,,1
M20317660_HDM,7dtn2s7n55,"Mediated JOLs",1,148,2024-04-17T14:56:25+00:00,1.6264619827271,3,versionB_stim.csv,ReadVersion.csv,Read,Read2,CREDIT,CARD,Study1,F,88,102,Study,User,-,,Study/JOL,"Study Phase2",1405,,,-1,-1,,,,1
M20317660_HDM,7dtn2s7n55,"Mediated JOLs",1,149,2024-04-17T14:56:27+00:00,1.3481061458588,3,versionB_stim.csv,ReadVersion.csv,Read,Read2,TOOTH,HAIR,Study1,M,74,88,Study,User,-,,Study/JOL,"Study Phase2",1060,,,-1,-1,,,,1
M20317660_HDM,7dtn2s7n55,"Mediated JOLs",1,150,2024-04-17T14:56:28+00:00,1.335352897644,3,versionB_stim.csv,ReadVersion.csv,Read,Read2,HORSE,WHEEL,Study1,M,69,87,Study,User,-,,Study/JOL,"Study Phase2",1097,,,-1,-1,,,,1
M20317660_HDM,7dtn2s7n55,"Mediated JOLs",1,151,2024-04-17T14:56:29+00:00,1.6261548995972,3,versionB_stim.csv,ReadVersion.csv,Read,Read2,ROUGH,SILK,Study1,M,65,69,Study,User,-,,Study/JOL,"Study Phase2",1297,,,-1,-1,,,,1
M20317660_HDM,7dtn2s7n55,"Mediated JOLs",1,152,2024-04-17T14:56:31+00:00,1.3902261257172,3,versionB_stim.csv,ReadVersion.csv,Read,Read2,CIRCLE,DANCE,Study1,M,68,104,Study,User,-,,Study/JOL,"Study Phase2",1121,,,-1,-1,,,,1
M20317660_HDM,7dtn2s7n55,"Mediated JOLs",1,153,2024-04-17T14:56:32+00:00,1.5102288722992,3,versionB_stim.csv,ReadVersion.csv,Read,Read2,CRACKLE,ELECTION,Study1,U,94,105,Study,User,-,,Study/JOL,"Study Phase2",1240,,,-1,-1,,,,1
M20317660_HDM,7dtn2s7n55,"Mediated JOLs",1,154,2024-04-17T14:56:34+00:00,1.5770480632782,3,versionB_stim.csv,ReadVersion.csv,Read,Read2,WAR,QUIET,Study1,M,63,101,Study,User,-,,Study/JOL,"Study Phase2",1332,,,-1,-1,,,,1
M20317660_HDM,7dtn2s7n55,"Mediated JOLs",1,155,2024-04-17T14:56:35+00:00,1.4789769649506,3,versionB_stim.csv,ReadVersion.csv,Read,Read2,SIGN,TICK,Study1,U,102,98,Study,User,-,,Study/JOL,"Study Phase2",1148,,,-1,-1,,,,1
M20317660_HDM,7dtn2s7n55,"Mediated JOLs",1,156,2024-04-17T14:56:37+00:00,1.3859829902649,3,versionB_stim.csv,ReadVersion.csv,Read,Read2,LISTEN,FICTION,Study1,U,99,84,Study,User,-,,Study/JOL,"Study Phase2",1165,,,-1,-1,,,,1
M20317660_HDM,7dtn2s7n55,"Mediated JOLs",1,157,2024-04-17T14:56:38+00:00,1.5312271118164,3,versionB_stim.csv,ReadVersion.csv,Read,Read2,MULE,DONKEY,Study1,F,85,73,Study,User,-,,Study/JOL,"Study Phase2",1313,,,-1,-1,,,,1
M20317660_HDM,7dtn2s7n55,"Mediated JOLs",1,158,2024-04-17T14:56:40+00:00,1.8573529720306,3,versionB_stim.csv,ReadVersion.csv,Read,Read2,CAMP,ADVENTURE,BUFFER4,Buffer,55,55,Study,User,-,,Study/JOL,BUFFER2,1579,,,-1,-1,,,,1
M20317660_HDM,7dtn2s7n55,"Mediated JOLs",1,159,2024-04-17T14:56:42+00:00,1.3347940444946,3,versionB_stim.csv,ReadVersion.csv,Read,Read2,NOODLE,STRING,BUFFER4,Buffer,52,56,Study,User,-,,Study/JOL,BUFFER2,1096,,,-1,-1,,,,1
M20317660_HDM,7dtn2s7n55,"Mediated JOLs",1,160,2024-04-17T14:56:44+00:00,1.9657080173492,3,versionB_stim.csv,ReadVersion.csv,Read,Read2,CARROT,POTATO,BUFFER4,Buffer,51,52,Study,User,-,,Study/JOL,BUFFER2,1702,,,-1,-1,,,,1
M20317660_HDM,7dtn2s7n55,"Mediated JOLs",1,161,2024-04-17T14:56:45+00:00,1.5442588329315,3,versionB_stim.csv,ReadVersion.csv,Read,Read2,MALT,CHOCOLATE,BUFFER2,Buffer,108,107,Study,User,-,,Study/JOL,BUFFER2,1289,,,-1,-1,,,,1
M20317660_HDM,7dtn2s7n55,"Mediated JOLs",1,162,2024-04-17T14:56:46+00:00,1.4099540710449,3,versionB_stim.csv,ReadVersion.csv,Read,Read2,ICE,FROZEN,BUFFER4,Buffer,54,54,Study,User,-,,Study/JOL,BUFFER2,1138,,,-1,-1,,,,1
M20317660_HDM,7dtn2s7n55,"Mediated JOLs",1,163,2024-04-17T14:56:48+00:00,1.6796519756317,3,versionB_stim.csv,ReadVersion.csv,Read,Read2,,,,,,0,Instruct,User,-,"You have completed this section. Please press Enter.",Filler_Instruction,Instruct2,1442,,,-1,-1,,,,1
M20317660_HDM,7dtn2s7n55,"Mediated JOLs",1,164,2024-04-17T14:58:49+00:00,120.3620660305,3,versionB_stim.csv,ReadVersion.csv,Read,Read2,,,,,,0,FreeRecall,120,120,"Please list the 50 US states in alphabetical order. The task will automatically advance to the next screen after two minutes.",,Filler1,120004,"Alabama, Arkansas, California, Colorado, Florida, Georgia, Idaho, Illinois, Kansas, Louisiana, Montana, Nebraska, North Dakota, North Carolina, Oregon, Pennsylvania, Rhode Island, ",0,2477,115609,0,0,,1
M20317660_HDM,7dtn2s7n55,"Mediated JOLs",1,165,2024-04-17T14:59:00+00:00,11.220880031586,3,versionB_stim.csv,ReadVersion.csv,Read,Read2,,,,,,0,Instruct,-,10,"You will now be presented with the first word from each of the previously studied item pairs. Please type the missing word. If you do not know the word, you may guess or press Enter to skip forward to the next pair.",,Instruct3,10720,,,-1,-1,,,,1
M20317660_HDM,7dtn2s7n55,"Mediated JOLs",1,166,2024-04-17T14:59:05+00:00,5.7567570209503,3,versionB_stim.csv,ReadVersion.csv,Read,Read2,CRACKLE,ELECTION,Study1,U,94,105,Test,User,-,,Recall,Recall2,5507,,0,3761,3761,0,0,,1
M20317660_HDM,7dtn2s7n55,"Mediated JOLs",1,167,2024-04-17T14:59:10+00:00,4.0798540115356,3,versionB_stim.csv,ReadVersion.csv,Read,Read2,LISTEN,FICTION,Study1,U,99,84,Test,User,-,,Recall,Recall2,3815,Hear,0,2347,2806,0,0,,1
M20317660_HDM,7dtn2s7n55,"Mediated JOLs",1,168,2024-04-17T14:59:13+00:00,3.0903270244598,3,versionB_stim.csv,ReadVersion.csv,Read,Read2,WEDDING,FINGER,Study1,M,72,85,Test,User,-,,Recall,Recall2,2814,Finger,100,1190,2026,1,1,,1
M20317660_HDM,7dtn2s7n55,"Mediated JOLs",1,169,2024-04-17T14:59:17+00:00,4.1207280158997,3,versionB_stim.csv,ReadVersion.csv,Read,Read2,MULE,DONKEY,Study1,F,85,73,Test,User,-,,Recall,Recall2,3870,Donkey,100,1020,2711,1,1,,1
M20317660_HDM,7dtn2s7n55,"Mediated JOLs",1,170,2024-04-17T14:59:21+00:00,4.5189788341522,3,versionB_stim.csv,ReadVersion.csv,Read,Read2,CRY,BOTTLE,Study1,M,71,76,Test,User,-,,Recall,Recall2,4261,Bottle,100,2146,3008,1,1,,1
M20317660_HDM,7dtn2s7n55,"Mediated JOLs",1,171,2024-04-17T14:59:25+00:00,4.0997540950775,3,versionB_stim.csv,ReadVersion.csv,Read,Read2,HARD,COTTON,Study1,M,75,103,Test,User,-,,Recall,Recall2,3800,Cloth,54.545454545455,2152,2914,0,0,,1
M20317660_HDM,7dtn2s7n55,"Mediated JOLs",1,172,2024-04-17T14:59:31+00:00,5.9022331237793,3,versionB_stim.csv,ReadVersion.csv,Read,Read2,BEACH,BOX,Study1,M,62,94,Test,User,-,,Recall,Recall2,5605,shell,0,3661,4555,0,0,,1
M20317660_HDM,7dtn2s7n55,"Mediated JOLs",1,173,2024-04-17T14:59:34+00:00,2.8874258995056,3,versionB_stim.csv,ReadVersion.csv,Read,Read2,ORCHID,FLOWER,Study1,F,89,80,Test,User,-,,Recall,Recall2,2647,Flower,100,1067,1915,1,1,,1
M20317660_HDM,7dtn2s7n55,"Mediated JOLs",1,174,2024-04-17T14:59:38+00:00,3.4149780273438,3,versionB_stim.csv,ReadVersion.csv,Read,Read2,WORD,SENTENCE,Study1,F,82,91,Test,User,-,,Recall,Recall2,3139,Sentence,100,1125,2450,1,1,,1
M20317660_HDM,7dtn2s7n55,"Mediated JOLs",1,175,2024-04-17T14:59:45+00:00,7.5847940444946,3,versionB_stim.csv,ReadVersion.csv,Read,Read2,SHELL,SHAKE,Study1,U,98,65,Test,User,-,,Recall,Recall2,7206,Clam,22.222222222222,5702,6166,0,0,,1
M20317660_HDM,7dtn2s7n55,"Mediated JOLs",1,176,2024-04-17T14:59:50+00:00,4.6825377941132,3,versionB_stim.csv,ReadVersion.csv,Read,Read2,FUZZY,BANG,Study1,U,105,92,Test,User,-,,Recall,Recall2,4386,Blanket,54.545454545455,1874,3411,0,0,,1
M20317660_HDM,7dtn2s7n55,"Mediated JOLs",1,177,2024-04-17T14:59:54+00:00,4.1818752288818,3,versionB_stim.csv,ReadVersion.csv,Read,Read2,ROOT,PLANT,Study1,F,80,67,Test,User,-,,Recall,Recall2,3917,Plant,100,2325,3057,1,1,,1
M20317660_HDM,7dtn2s7n55,"Mediated JOLs",1,178,2024-04-17T15:00:00+00:00,5.9369969367981,3,versionB_stim.csv,ReadVersion.csv,Read,Read2,MIRROR,MAROON,Study1,U,91,77,Test,User,-,,Recall,Recall2,5657,Maroon,100,1990,4810,1,1,,1
M20317660_HDM,7dtn2s7n55,"Mediated JOLs",1,179,2024-04-17T15:00:04+00:00,3.8800120353699,3,versionB_stim.csv,ReadVersion.csv,Read,Read2,GIVE,STEAK,Study1,U,93,106,Test,User,-,,Recall,Recall2,3585,Receive,16.666666666667,1834,2902,0,0,,1
M20317660_HDM,7dtn2s7n55,"Mediated JOLs",1,180,2024-04-17T15:00:07+00:00,3.1228499412537,3,versionB_stim.csv,ReadVersion.csv,Read,Read2,MULE,DONKEY,Study1,F,79,96,Test,User,-,,Recall,Recall2,2908,Donkey,100,1087,1991,1,1,,1
M20317660_HDM,7dtn2s7n55,"Mediated JOLs",1,181,2024-04-17T15:00:10+00:00,3.4099340438843,3,versionB_stim.csv,ReadVersion.csv,Read,Read2,SIP,DRINK,Study1,F,87,78,Test,User,-,,Recall,Recall2,3039,Drink,100,1210,1848,1,1,,1
M20317660_HDM,7dtn2s7n55,"Mediated JOLs",1,182,2024-04-17T15:00:13+00:00,2.9204490184784,3,versionB_stim.csv,ReadVersion.csv,Read,Read2,WAGE,MONEY,Study1,F,77,64,Test,User,-,,Recall,Recall2,2692,Money,100,1123,1795,1,1,,1
M20317660_HDM,7dtn2s7n55,"Mediated JOLs",1,183,2024-04-17T15:00:18+00:00,4.1973450183868,3,versionB_stim.csv,ReadVersion.csv,Read,Read2,LITTER,TRASH,Study1,F,76,100,Test,User,-,,Recall,Recall2,3897,Trash,100,1278,2994,1,1,,1
M20317660_HDM,7dtn2s7n55,"Mediated JOLs",1,184,2024-04-17T15:00:21+00:00,3.0450859069824,3,versionB_stim.csv,ReadVersion.csv,Read,Read2,BIRTHDAY,PIE,Study1,M,64,99,Test,User,-,,Recall,Recall2,2826,Cake,28.571428571429,1691,2254,0,0,,1
M20317660_HDM,7dtn2s7n55,"Mediated JOLs",1,185,2024-04-17T15:00:23+00:00,2.3775629997253,3,versionB_stim.csv,ReadVersion.csv,Read,Read2,AFFECTION,LOVE,Study1,F,86,66,Test,User,-,,Recall,Recall2,2156,Love,100,1010,1538,1,1,,1
M20317660_HDM,7dtn2s7n55,"Mediated JOLs",1,186,2024-04-17T15:00:26+00:00,3.2699320316315,3,versionB_stim.csv,ReadVersion.csv,Read,Read2,SOON,BELT,Study1,U,101,71,Test,User,-,,Recall,Recall2,3045,Later,44.444444444444,1735,2312,0,0,,1
M20317660_HDM,7dtn2s7n55,"Mediated JOLs",1,187,2024-04-17T15:00:31+00:00,4.3232190608978,3,versionB_stim.csv,ReadVersion.csv,Read,Read2,STRETCH,CLOTH,Study1,U,92,95,Test,User,-,,Recall,Recall2,4026,Clothes,83.333333333333,1607,3684,0,1,,1
M20317660_HDM,7dtn2s7n55,"Mediated JOLs",1,188,2024-04-17T15:00:33+00:00,2.6728539466858,3,versionB_stim.csv,ReadVersion.csv,Read,Read2,SWAN,BIRD,Study1,F,81,93,Test,User,-,,Recall,Recall2,2413,Bird,100,1248,1932,1,1,,1
M20317660_HDM,7dtn2s7n55,"Mediated JOLs",1,189,2024-04-17T15:00:39+00:00,5.6354858875275,3,versionB_stim.csv,ReadVersion.csv,Read,Read2,MAZE,PHONE,Study1,U,97,75,Test,User,-,,Recall,Recall2,5271,,0,-1,-1,0,0,,1
M20317660_HDM,7dtn2s7n55,"Mediated JOLs",1,190,2024-04-17T15:00:44+00:00,4.7252490520477,3,versionB_stim.csv,ReadVersion.csv,Read,Read2,TOOTH,HAIR,Study1,M,74,88,Test,User,-,,Recall,Recall2,4509,Hair,100,2421,4132,1,1,,1
M20317660_HDM,7dtn2s7n55,"Mediated JOLs",1,191,2024-04-17T15:00:47+00:00,3.630527973175,3,versionB_stim.csv,ReadVersion.csv,Read,Read2,ROUGH,SILK,Study1,M,65,69,Test,User,-,,Recall,Recall2,3391,Clothes,18.181818181818,1931,2940,0,0,,1
M20317660_HDM,7dtn2s7n55,"Mediated JOLs",1,192,2024-04-17T15:00:50+00:00,3.171245098114,3,versionB_stim.csv,ReadVersion.csv,Read,Read2,VEHICLE,CHARM,Study1,U,95,81,Test,User,-,,Recall,Recall2,2844,Charm,100,1340,2088,1,1,,1
M20317660_HDM,7dtn2s7n55,"Mediated JOLs",1,193,2024-04-17T15:00:53+00:00,2.9898319244385,3,versionB_stim.csv,ReadVersion.csv,Read,Read2,DAY,DARK,Study1,M,73,74,Test,User,-,,Recall,Recall2,2764,Night,0,1422,2110,0,0,,1
M20317660_HDM,7dtn2s7n55,"Mediated JOLs",1,194,2024-04-17T15:00:56+00:00,2.1911189556122,3,versionB_stim.csv,ReadVersion.csv,Read,Read2,KEYS,ROD,Study1,U,100,79,Test,User,-,,Recall,Recall2,1945,,0,-1,-1,0,0,,1
M20317660_HDM,7dtn2s7n55,"Mediated JOLs",1,195,2024-04-17T15:00:59+00:00,3.5020711421967,3,versionB_stim.csv,ReadVersion.csv,Read,Read2,LION,STRIPES,Study1,M,61,86,Test,User,-,,Recall,Recall2,3240,Main,18.181818181818,2064,2514,0,0,,1
M20317660_HDM,7dtn2s7n55,"Mediated JOLs",1,196,2024-04-17T15:01:02+00:00,2.7283308506012,3,versionB_stim.csv,ReadVersion.csv,Read,Read2,CIRCLE,DANCE,Study1,M,68,104,Test,User,-,,Recall,Recall2,2484,Dance,100,1346,2112,1,1,,1
M20317660_HDM,7dtn2s7n55,"Mediated JOLs",1,197,2024-04-17T15:01:04+00:00,2.2693591117859,3,versionB_stim.csv,ReadVersion.csv,Read,Read2,MEAT,KEYS,Study1,U,96,70,Test,User,-,,Recall,Recall2,2038,,0,-1,-1,0,0,,1
M20317660_HDM,7dtn2s7n55,"Mediated JOLs",1,198,2024-04-17T15:01:08+00:00,4.0274949073792,3,versionB_stim.csv,ReadVersion.csv,Read,Read2,TUNA,FISH,Study1,F,90,82,Test,User,-,,Recall,Recall2,2634,Fish,100,1312,1854,1,1,,1
M20317660_HDM,7dtn2s7n55,"Mediated JOLs",1,199,2024-04-17T15:01:10+00:00,1.9918360710144,3,versionB_stim.csv,ReadVersion.csv,Read,Read2,HORSE,WHEEL,Study1,M,69,87,Test,User,-,,Recall,Recall2,1741,,0,-1,-1,0,0,,1
M20317660_HDM,7dtn2s7n55,"Mediated JOLs",1,200,2024-04-17T15:01:13+00:00,3.3257110118866,3,versionB_stim.csv,ReadVersion.csv,Read,Read2,SCALP,HEAD,Study1,F,78,62,Test,User,-,,Recall,Recall2,3098,Hair,50,2003,2548,0,0,,1
M20317660_HDM,7dtn2s7n55,"Mediated JOLs",1,201,2024-04-17T15:01:16+00:00,2.3140070438385,3,versionB_stim.csv,ReadVersion.csv,Read,Read2,CAKE,HAND,Study1,U,104,72,Test,User,-,,Recall,Recall2,2053,,0,-1,-1,0,0,,1
M20317660_HDM,7dtn2s7n55,"Mediated JOLs",1,202,2024-04-17T15:01:18+00:00,2.6071569919586,3,versionB_stim.csv,ReadVersion.csv,Read,Read2,HYGIENE,CLEAN,Study1,F,83,97,Test,User,-,,Recall,Recall2,2318,Clean,100,1007,1664,1,1,,1
M20317660_HDM,7dtn2s7n55,"Mediated JOLs",1,203,2024-04-17T15:01:21+00:00,2.462504863739,3,versionB_stim.csv,ReadVersion.csv,Read,Read2,SIGN,TICK,Study1,U,102,98,Test,User,-,,Recall,Recall2,2181,,0,-1,-1,0,0,,1
M20317660_HDM,7dtn2s7n55,"Mediated JOLs",1,204,2024-04-17T15:01:25+00:00,3.9785690307617,3,versionB_stim.csv,ReadVersion.csv,Read,Read2,TREE,SYRUP,Study1,M,66,68,Test,User,-,,Recall,Recall2,3734,Green,20,1423,2202,0,0,,1
M20317660_HDM,7dtn2s7n55,"Mediated JOLs",1,205,2024-04-17T15:01:27+00:00,1.9457979202271,3,versionB_stim.csv,ReadVersion.csv,Read,Read2,NAP,SLEEP,Study1,F,84,89,Test,User,-,,Recall,Recall2,1719,,0,-1,-1,0,0,,1
M20317660_HDM,7dtn2s7n55,"Mediated JOLs",1,206,2024-04-17T15:01:30+00:00,3.6073820590973,3,versionB_stim.csv,ReadVersion.csv,Read,Read2,WAR,QUIET,Study1,M,63,101,Test,User,-,,Recall,Recall2,3243,Quiet,100,1314,2060,1,1,,1
M20317660_HDM,7dtn2s7n55,"Mediated JOLs",1,207,2024-04-17T15:01:33+00:00,3.12020611763,3,versionB_stim.csv,ReadVersion.csv,Read,Read2,CEILING,CARPET,Study1,M,70,63,Test,User,-,,Recall,Recall2,2857,Fan,22.222222222222,1409,1714,0,0,,1
M20317660_HDM,7dtn2s7n55,"Mediated JOLs",1,208,2024-04-17T15:01:37+00:00,3.7551720142365,3,versionB_stim.csv,ReadVersion.csv,Read,Read2,BAT,BOUNCE,Study1,M,67,83,Test,User,-,,Recall,Recall2,3525,Bounce,100,1612,2505,1,1,,1
M20317660_HDM,7dtn2s7n55,"Mediated JOLs",1,209,2024-04-17T15:01:41+00:00,3.5602300167084,3,versionB_stim.csv,ReadVersion.csv,Read,Read2,CREDIT,CARD,Study1,F,88,102,Test,User,-,,Recall,Recall2,3306,Card,100,1594,2069,1,1,,1
M20317660_HDM,7dtn2s7n55,"Mediated JOLs",1,210,2024-04-17T15:01:44+00:00,3.0084869861603,3,versionB_stim.csv,ReadVersion.csv,Read,Read2,TEMPERATURE,MORNING,Study1,U,103,90,Test,User,-,,Recall,Recall2,2709,Hot,20,1493,1785,0,0,,1
M20317660_HDM,7dtn2s7n55,"Mediated JOLs",1,211,2024-04-17T15:05:20+00:00,216.16185092926,3,versionB_stim.csv,ReadVersion.csv,Read,Read2,,,,,,0,Instruct,User,-,"You have completed this section. Please press Enter.",,Instruct7,215090,,,-1,-1,,,,0.264
M20317660_HDM,7dtn2s7n55,"Mediated JOLs",1,212,2024-04-17T15:05:23+00:00,3.2229499816895,3,versionB_stim.csv,ReadVersion.csv,Read,Read2,,,,,,0,Instruct,User,-,"The following screen will ask you a few questions abour your experience today. You must complete these questions to receive credit.",,Instruct8,3023,,,-1,-1,,,,1
