Username,ID,ExperimentName,Session,Trial,Date,TimeDif,"Condition Number","Stimuli File","Order File","Condition Description","Condition Notes",Stimuli*Cue,Stimuli*Answer,Stimuli*Shuffle,"Stimuli*Stimuli Notes",Stimuli*Value,Procedure*Item,"Procedure*Trial Type","Procedure*Max Time","Procedure*Min Time",Procedure*Text,"Procedure*Procedure Notes",Procedure*Shuffle,Response*RT,Response*Response,Response*Accuracy,Response*RTfirst,Response*RTlast,Response*strictAcc,Response*lenientAcc,Response*focus,Response*Focus
M20317201JN,52st7c9tqe,"Mediated JOLs",1,1,2024-04-20T03:37:43+00:00,6.1198830604553,1,versionA_stim.csv,ReadVersion.csv,Read,Read1,,,,,,0,Instruct,-,5,"In this section, you will be presented with a series of word pairs. Please study each word pair! Your memory will be tested!",Initial_Instruct,Instruct1,5332,,,-1,-1,,,,1
M20317201JN,52st7c9tqe,"Mediated JOLs",1,2,2024-04-20T03:37:44+00:00,0.76829600334167,1,versionA_stim.csv,ReadVersion.csv,Read,Read1,,,,,,0,Instruct,User,-,"You will now begin. Press Enter when you are ready to begin.",,Instruct16,655,,,-1,-1,,,,1
M20317201JN,52st7c9tqe,"Mediated JOLs",1,3,2024-04-20T03:37:45+00:00,1.6100680828094,1,versionA_stim.csv,ReadVersion.csv,Read,Read1,PITCHER,CATCHER,BUFFER1,Buffer,2,3,Study,User,-,,Study/JOL,BUFFER,1496,,,-1,-1,,,,1
M20317201JN,52st7c9tqe,"Mediated JOLs",1,4,2024-04-20T03:37:47+00:00,1.4122638702393,1,versionA_stim.csv,ReadVersion.csv,Read,Read1,SCARE,FRIGHT,BUFFER1,Buffer,4,4,Study,User,-,,Study/JOL,BUFFER,1300,,,-1,-1,,,,1
M20317201JN,52st7c9tqe,"Mediated JOLs",1,5,2024-04-20T03:37:48+00:00,1.1193680763245,1,versionA_stim.csv,ReadVersion.csv,Read,Read1,PEANUT,BUTTER,BUFFER1,Buffer,3,5,Study,User,-,,Study/JOL,BUFFER,1000,,,-1,-1,,,,1
M20317201JN,52st7c9tqe,"Mediated JOLs",1,6,2024-04-20T03:37:50+00:00,1.7312839031219,1,versionA_stim.csv,ReadVersion.csv,Read,Read1,TREES,GREEN,BUFFER1,Buffer,1,2,Study,User,-,,Study/JOL,BUFFER,1619,,,-1,-1,,,,1
M20317201JN,52st7c9tqe,"Mediated JOLs",1,7,2024-04-20T03:37:51+00:00,1.2451989650726,1,versionA_stim.csv,ReadVersion.csv,Read,Read1,SPACE,JAM,BUFFER1,Buffer,5,6,Study,User,-,,Study/JOL,BUFFER,1134,,,-1,-1,,,,1
M20317201JN,52st7c9tqe,"Mediated JOLs",1,8,2024-04-20T03:37:53+00:00,1.6936202049255,1,versionA_stim.csv,ReadVersion.csv,Read,Read1,NAP,SLEEP,Study1,F,29,45,Study,User,-,,Study/JOL,"Study Phase",1577,,,-1,-1,,,,1
M20317201JN,52st7c9tqe,"Mediated JOLs",1,9,2024-04-20T03:37:54+00:00,1.0925929546356,1,versionA_stim.csv,ReadVersion.csv,Read,Read1,TUNA,FISH,Study1,F,35,44,Study,User,-,,Study/JOL,"Study Phase",986,,,-1,-1,,,,1
M20317201JN,52st7c9tqe,"Mediated JOLs",1,10,2024-04-20T03:37:55+00:00,1.3065519332886,1,versionA_stim.csv,ReadVersion.csv,Read,Read1,CEILING,CARPET,Study1,M,15,27,Study,User,-,,Study/JOL,"Study Phase",1201,,,-1,-1,,,,1
M20317201JN,52st7c9tqe,"Mediated JOLs",1,11,2024-04-20T03:37:56+00:00,1.2976539134979,1,versionA_stim.csv,ReadVersion.csv,Read,Read1,WAGE,MONEY,Study1,F,22,14,Study,User,-,,Study/JOL,"Study Phase",1184,,,-1,-1,,,,1
M20317201JN,52st7c9tqe,"Mediated JOLs",1,12,2024-04-20T03:37:57+00:00,1.0129461288452,1,versionA_stim.csv,ReadVersion.csv,Read,Read1,LITTER,TRASH,Study1,F,21,19,Study,User,-,,Study/JOL,"Study Phase",899,,,-1,-1,,,,1
M20317201JN,52st7c9tqe,"Mediated JOLs",1,13,2024-04-20T03:37:58+00:00,0.59741997718811,1,versionA_stim.csv,ReadVersion.csv,Read,Read1,BAT,BOUNCE,Study1,M,12,41,Study,User,-,,Study/JOL,"Study Phase",495,,,-1,-1,,,,1
M20317201JN,52st7c9tqe,"Mediated JOLs",1,14,2024-04-20T03:37:59+00:00,1.3987650871277,1,versionA_stim.csv,ReadVersion.csv,Read,Read1,WAR,QUIET,Study1,M,8,37,Study,User,-,,Study/JOL,"Study Phase",1284,,,-1,-1,,,,1
M20317201JN,52st7c9tqe,"Mediated JOLs",1,15,2024-04-20T03:38:00+00:00,0.91357898712158,1,versionA_stim.csv,ReadVersion.csv,Read,Read1,MULE,DONKEY,Study1,F,24,35,Study,User,-,,Study/JOL,"Study Phase",805,,,-1,-1,,,,1
M20317201JN,52st7c9tqe,"Mediated JOLs",1,16,2024-04-20T03:38:01+00:00,1.0742409229279,1,versionA_stim.csv,ReadVersion.csv,Read,Read1,KEYS,ROD,Study1,U,45,28,Study,User,-,,Study/JOL,"Study Phase",966,,,-1,-1,,,,1
M20317201JN,52st7c9tqe,"Mediated JOLs",1,17,2024-04-20T03:38:02+00:00,0.97577095031738,1,versionA_stim.csv,ReadVersion.csv,Read,Read1,CRY,BOTTLE,Study1,M,16,15,Study,User,-,,Study/JOL,"Study Phase",875,,,-1,-1,,,,1
M20317201JN,52st7c9tqe,"Mediated JOLs",1,18,2024-04-20T03:38:04+00:00,1.2913179397583,1,versionA_stim.csv,ReadVersion.csv,Read,Read1,SIGN,TICK,Study1,U,47,38,Study,User,-,,Study/JOL,"Study Phase",1181,,,-1,-1,,,,1
M20317201JN,52st7c9tqe,"Mediated JOLs",1,19,2024-04-20T03:38:05+00:00,1.0380461215973,1,versionA_stim.csv,ReadVersion.csv,Read,Read1,SIP,DRINK,Study1,F,32,32,Study,User,-,,Study/JOL,"Study Phase",927,,,-1,-1,,,,1
M20317201JN,52st7c9tqe,"Mediated JOLs",1,20,2024-04-20T03:38:06+00:00,1.093770980835,1,versionA_stim.csv,ReadVersion.csv,Read,Read1,AFFECTION,LOVE,Study1,F,31,13,Study,User,-,,Study/JOL,"Study Phase",980,,,-1,-1,,,,1
M20317201JN,52st7c9tqe,"Mediated JOLs",1,21,2024-04-20T03:38:07+00:00,0.90976405143738,1,versionA_stim.csv,ReadVersion.csv,Read,Read1,SWAN,BIRD,Study1,F,26,51,Study,User,-,,Study/JOL,"Study Phase",769,,,-1,-1,,,,1
M20317201JN,52st7c9tqe,"Mediated JOLs",1,22,2024-04-20T03:38:08+00:00,1.2623710632324,1,versionA_stim.csv,ReadVersion.csv,Read,Read1,ORCHID,FLOWER,Study1,F,34,17,Study,User,-,,Study/JOL,"Study Phase",1147,,,-1,-1,,,,1
M20317201JN,52st7c9tqe,"Mediated JOLs",1,23,2024-04-20T03:38:09+00:00,0.94919395446777,1,versionA_stim.csv,ReadVersion.csv,Read,Read1,MEAT,KEYS,Study1,U,41,23,Study,User,-,,Study/JOL,"Study Phase",843,,,-1,-1,,,,1
M20317201JN,52st7c9tqe,"Mediated JOLs",1,24,2024-04-20T03:38:10+00:00,1.3214628696442,1,versionA_stim.csv,ReadVersion.csv,Read,Read1,TEMPERATURE,MORNING,Study1,U,48,29,Study,User,-,,Study/JOL,"Study Phase",1209,,,-1,-1,,,,1
M20317201JN,52st7c9tqe,"Mediated JOLs",1,25,2024-04-20T03:38:11+00:00,1.0629060268402,1,versionA_stim.csv,ReadVersion.csv,Read,Read1,HORSE,WHEEL,Study1,M,14,9,Study,User,-,,Study/JOL,"Study Phase",951,,,-1,-1,,,,1
M20317201JN,52st7c9tqe,"Mediated JOLs",1,26,2024-04-20T03:38:13+00:00,1.3043210506439,1,versionA_stim.csv,ReadVersion.csv,Read,Read1,SHELL,SHAKE,Study1,U,43,16,Study,User,-,,Study/JOL,"Study Phase",1188,,,-1,-1,,,,1
M20317201JN,52st7c9tqe,"Mediated JOLs",1,27,2024-04-20T03:38:14+00:00,1.1819539070129,1,versionA_stim.csv,ReadVersion.csv,Read,Read1,TREE,SYRUP,Study1,M,11,46,Study,User,-,,Study/JOL,"Study Phase",1073,,,-1,-1,,,,1
M20317201JN,52st7c9tqe,"Mediated JOLs",1,28,2024-04-20T03:38:16+00:00,2.5017511844635,1,versionA_stim.csv,ReadVersion.csv,Read,Read1,TOOTH,HAIR,Study1,M,19,36,Study,User,-,,Study/JOL,"Study Phase",2394,,,-1,-1,,,,1
M20317201JN,52st7c9tqe,"Mediated JOLs",1,29,2024-04-20T03:38:20+00:00,3.4004027843475,1,versionA_stim.csv,ReadVersion.csv,Read,Read1,MIRROR,MAROON,Study1,U,36,48,Study,User,-,,Study/JOL,"Study Phase",3298,,,-1,-1,,,,1
M20317201JN,52st7c9tqe,"Mediated JOLs",1,30,2024-04-20T03:38:21+00:00,0.89896821975708,1,versionA_stim.csv,ReadVersion.csv,Read,Read1,STRETCH,CLOTH,Study1,U,37,43,Study,User,-,,Study/JOL,"Study Phase",764,,,-1,-1,,,,1
M20317201JN,52st7c9tqe,"Mediated JOLs",1,31,2024-04-20T03:38:22+00:00,1.0889239311218,1,versionA_stim.csv,ReadVersion.csv,Read,Read1,CAKE,HAND,Study1,U,49,30,Study,User,-,,Study/JOL,"Study Phase",982,,,-1,-1,,,,1
M20317201JN,52st7c9tqe,"Mediated JOLs",1,32,2024-04-20T03:38:23+00:00,0.93597292900085,1,versionA_stim.csv,ReadVersion.csv,Read,Read1,ROUGH,SILK,Study1,M,10,7,Study,User,-,,Study/JOL,"Study Phase",818,,,-1,-1,,,,1
M20317201JN,52st7c9tqe,"Mediated JOLs",1,33,2024-04-20T03:38:24+00:00,0.92875099182129,1,versionA_stim.csv,ReadVersion.csv,Read,Read1,GIVE,STEAK,Study1,U,38,49,Study,User,-,,Study/JOL,"Study Phase",817,,,-1,-1,,,,1
M20317201JN,52st7c9tqe,"Mediated JOLs",1,34,2024-04-20T03:38:24+00:00,0.88622212409973,1,versionA_stim.csv,ReadVersion.csv,Read,Read1,BIRTHDAY,PIE,Study1,M,9,18,Study,User,-,,Study/JOL,"Study Phase",775,,,-1,-1,,,,1
M20317201JN,52st7c9tqe,"Mediated JOLs",1,35,2024-04-20T03:38:26+00:00,1.1955440044403,1,versionA_stim.csv,ReadVersion.csv,Read,Read1,HYGIENE,CLEAN,Study1,F,28,25,Study,User,-,,Study/JOL,"Study Phase",1093,,,-1,-1,,,,1
M20317201JN,52st7c9tqe,"Mediated JOLs",1,36,2024-04-20T03:38:27+00:00,1.1009738445282,1,versionA_stim.csv,ReadVersion.csv,Read,Read1,CREDIT,CARD,Study1,F,33,50,Study,User,-,,Study/JOL,"Study Phase",985,,,-1,-1,,,,1
M20317201JN,52st7c9tqe,"Mediated JOLs",1,37,2024-04-20T03:38:28+00:00,0.78783702850342,1,versionA_stim.csv,ReadVersion.csv,Read,Read1,FUZZY,BANG,Study1,U,50,10,Study,User,-,,Study/JOL,"Study Phase",682,,,-1,-1,,,,1
M20317201JN,52st7c9tqe,"Mediated JOLs",1,38,2024-04-20T03:38:29+00:00,1.5658061504364,1,versionA_stim.csv,ReadVersion.csv,Read,Read1,CRACKLE,ELECTION,Study1,U,39,39,Study,User,-,,Study/JOL,"Study Phase",1450,,,-1,-1,,,,1
M20317201JN,52st7c9tqe,"Mediated JOLs",1,39,2024-04-20T03:38:31+00:00,2.0527257919312,1,versionA_stim.csv,ReadVersion.csv,Read,Read1,WORD,SENTENCE,Study1,F,27,22,Study,User,-,,Study/JOL,"Study Phase",1945,,,-1,-1,,,,1
M20317201JN,52st7c9tqe,"Mediated JOLs",1,40,2024-04-20T03:38:32+00:00,1.0454421043396,1,versionA_stim.csv,ReadVersion.csv,Read,Read1,DAY,DARK,Study1,M,18,31,Study,User,-,,Study/JOL,"Study Phase",923,,,-1,-1,,,,1
M20317201JN,52st7c9tqe,"Mediated JOLs",1,41,2024-04-20T03:38:33+00:00,0.82747602462769,1,versionA_stim.csv,ReadVersion.csv,Read,Read1,LISTEN,FICTION,Study1,U,44,34,Study,User,-,,Study/JOL,"Study Phase",720,,,-1,-1,,,,1
M20317201JN,52st7c9tqe,"Mediated JOLs",1,42,2024-04-20T03:38:34+00:00,1.1958770751953,1,versionA_stim.csv,ReadVersion.csv,Read,Read1,SOON,BELT,Study1,U,46,33,Study,User,-,,Study/JOL,"Study Phase",1083,,,-1,-1,,,,1
M20317201JN,52st7c9tqe,"Mediated JOLs",1,43,2024-04-20T03:38:36+00:00,2.2487668991089,1,versionA_stim.csv,ReadVersion.csv,Read,Read1,HARD,COTTON,Study1,M,20,47,Study,User,-,,Study/JOL,"Study Phase",2136,,,-1,-1,,,,1
M20317201JN,52st7c9tqe,"Mediated JOLs",1,44,2024-04-20T03:38:37+00:00,1.0534589290619,1,versionA_stim.csv,ReadVersion.csv,Read,Read1,VEHICLE,CHARM,Study1,U,40,11,Study,User,-,,Study/JOL,"Study Phase",945,,,-1,-1,,,,1
M20317201JN,52st7c9tqe,"Mediated JOLs",1,45,2024-04-20T03:38:39+00:00,1.0612931251526,1,versionA_stim.csv,ReadVersion.csv,Read,Read1,WEDDING,FINGER,Study1,M,17,12,Study,User,-,,Study/JOL,"Study Phase",946,,,-1,-1,,,,1
M20317201JN,52st7c9tqe,"Mediated JOLs",1,46,2024-04-20T03:38:40+00:00,1.4175848960876,1,versionA_stim.csv,ReadVersion.csv,Read,Read1,CIRCLE,DANCE,Study1,M,13,40,Study,User,-,,Study/JOL,"Study Phase",1307,,,-1,-1,,,,1
M20317201JN,52st7c9tqe,"Mediated JOLs",1,47,2024-04-20T03:38:41+00:00,1.0740070343018,1,versionA_stim.csv,ReadVersion.csv,Read,Read1,ROOT,PLANT,Study1,F,25,20,Study,User,-,,Study/JOL,"Study Phase",965,,,-1,-1,,,,1
M20317201JN,52st7c9tqe,"Mediated JOLs",1,48,2024-04-20T03:38:42+00:00,0.9475998878479,1,versionA_stim.csv,ReadVersion.csv,Read,Read1,MAZE,PHONE,Study1,U,42,42,Study,User,-,,Study/JOL,"Study Phase",837,,,-1,-1,,,,1
M20317201JN,52st7c9tqe,"Mediated JOLs",1,49,2024-04-20T03:38:43+00:00,1.1226630210876,1,versionA_stim.csv,ReadVersion.csv,Read,Read1,SCALP,HEAD,Study1,F,23,21,Study,User,-,,Study/JOL,"Study Phase",1013,,,-1,-1,,,,1
M20317201JN,52st7c9tqe,"Mediated JOLs",1,50,2024-04-20T03:38:44+00:00,0.96097302436829,1,versionA_stim.csv,ReadVersion.csv,Read,Read1,MULE,DONKEY,Study1,F,30,8,Study,User,-,,Study/JOL,"Study Phase",850,,,-1,-1,,,,1
M20317201JN,52st7c9tqe,"Mediated JOLs",1,51,2024-04-20T03:38:46+00:00,1.6353540420532,1,versionA_stim.csv,ReadVersion.csv,Read,Read1,LION,STRIPES,Study1,M,6,24,Study,User,-,,Study/JOL,"Study Phase",1526,,,-1,-1,,,,1
M20317201JN,52st7c9tqe,"Mediated JOLs",1,52,2024-04-20T03:38:47+00:00,1.2784039974213,1,versionA_stim.csv,ReadVersion.csv,Read,Read1,BEACH,BOX,Study1,M,7,26,Study,User,-,,Study/JOL,"Study Phase",1165,,,-1,-1,,,,1
M20317201JN,52st7c9tqe,"Mediated JOLs",1,53,2024-04-20T03:38:48+00:00,1.0788929462433,1,versionA_stim.csv,ReadVersion.csv,Read,Read1,TOOL,SHED,BUFFER3,Buffer,58,58,Study,User,-,,Study/JOL,BUFFER2,967,,,-1,-1,,,,1
M20317201JN,52st7c9tqe,"Mediated JOLs",1,54,2024-04-20T03:38:49+00:00,0.74546504020691,1,versionA_stim.csv,ReadVersion.csv,Read,Read1,CAMP,ADVENTURE,BUFFER4,Buffer,110,109,Study,User,-,,Study/JOL,BUFFER2,634,,,-1,-1,,,,1
M20317201JN,52st7c9tqe,"Mediated JOLs",1,55,2024-04-20T03:38:50+00:00,1.1307461261749,1,versionA_stim.csv,ReadVersion.csv,Read,Read1,DAYS,WEAKS,BUFFER3,Buffer,56,57,Study,User,-,,Study/JOL,BUFFER2,1019,,,-1,-1,,,,1
M20317201JN,52st7c9tqe,"Mediated JOLs",1,56,2024-04-20T03:38:52+00:00,2.3847188949585,1,versionA_stim.csv,ReadVersion.csv,Read,Read1,ICE,FROZEN,BUFFER4,Buffer,109,108,Study,User,-,,Study/JOL,BUFFER2,2272,,,-1,-1,,,,1
M20317201JN,52st7c9tqe,"Mediated JOLs",1,57,2024-04-20T03:38:54+00:00,1.1935160160065,1,versionA_stim.csv,ReadVersion.csv,Read,Read1,MALT,CHOCOLATE,BUFFER2,Buffer,53,53,Study,User,-,,Study/JOL,BUFFER2,1076,,,-1,-1,,,,1
M20317201JN,52st7c9tqe,"Mediated JOLs",1,58,2024-04-20T03:38:55+00:00,1.0344700813293,1,versionA_stim.csv,ReadVersion.csv,Read,Read1,,,,,,0,Instruct,User,-,"You have completed this section. Please press Enter.",Filler_Instruction,Instruct2,924,,,-1,-1,,,,1
M20317201JN,52st7c9tqe,"Mediated JOLs",1,59,2024-04-20T03:40:55+00:00,120.23066186905,1,versionA_stim.csv,ReadVersion.csv,Read,Read1,,,,,,0,FreeRecall,120,120,"Please list the 50 US states in alphabetical order. The task will automatically advance to the next screen after two minutes.",,Filler1,120001,"Alabama Alaska Arizona Colorado Connecticut Deleware Hawaii Illinois Indiana Iowa Georgia Maine Massachusetts Michigan Minnesota New Hampshire New Jersey New York North Dakota Ohio Pennsylvania South Dakota South Virginia Texas Utah Vermont Virginia ",0,3966,113163,0,0,,1
M20317201JN,52st7c9tqe,"Mediated JOLs",1,60,2024-04-20T03:41:06+00:00,10.727329015732,1,versionA_stim.csv,ReadVersion.csv,Read,Read1,,,,,,0,Instruct,-,10,"You will now be presented with the first word from each of the previously studied item pairs. Please type the missing word. If you do not know the word, you may guess or press Enter to skip forward to the next pair.",,Instruct3,10558,,,-1,-1,,,,1
M20317201JN,52st7c9tqe,"Mediated JOLs",1,61,2024-04-20T03:41:10+00:00,4.0083861351013,1,versionA_stim.csv,ReadVersion.csv,Read,Read1,BIRTHDAY,PIE,Study1,M,9,18,Test,User,-,,Recall,Recall1,3898,CAKE,28.571428571429,1928,3158,0,0,,1
M20317201JN,52st7c9tqe,"Mediated JOLs",1,62,2024-04-20T03:41:11+00:00,1.066223859787,1,versionA_stim.csv,ReadVersion.csv,Read,Read1,KEYS,ROD,Study1,U,45,28,Test,User,-,,Recall,Recall1,946,,0,-1,-1,0,0,,1
M20317201JN,52st7c9tqe,"Mediated JOLs",1,63,2024-04-20T03:41:12+00:00,0.96795606613159,1,versionA_stim.csv,ReadVersion.csv,Read,Read1,SOON,BELT,Study1,U,46,33,Test,User,-,,Recall,Recall1,844,,0,-1,-1,0,0,,1
M20317201JN,52st7c9tqe,"Mediated JOLs",1,64,2024-04-20T03:41:13+00:00,1.9380888938904,1,versionA_stim.csv,ReadVersion.csv,Read,Read1,LISTEN,FICTION,Study1,U,44,34,Test,User,-,,Recall,Recall1,1824,,0,513,513,0,0,,1
M20317201JN,52st7c9tqe,"Mediated JOLs",1,65,2024-04-20T03:41:14+00:00,0.58228302001953,1,versionA_stim.csv,ReadVersion.csv,Read,Read1,SIGN,TICK,Study1,U,47,38,Test,User,-,,Recall,Recall1,470,,0,-1,-1,0,0,,1
M20317201JN,52st7c9tqe,"Mediated JOLs",1,66,2024-04-20T03:41:15+00:00,0.42934799194336,1,versionA_stim.csv,ReadVersion.csv,Read,Read1,CREDIT,CARD,Study1,F,33,50,Test,User,-,,Recall,Recall1,310,,0,-1,-1,0,0,,1
M20317201JN,52st7c9tqe,"Mediated JOLs",1,67,2024-04-20T03:41:18+00:00,3.8698670864105,1,versionA_stim.csv,ReadVersion.csv,Read,Read1,MAZE,PHONE,Study1,U,42,42,Test,User,-,,Recall,Recall1,3742,PHONE,100,1736,2096,1,1,,1
M20317201JN,52st7c9tqe,"Mediated JOLs",1,68,2024-04-20T03:41:19+00:00,0.88603806495667,1,versionA_stim.csv,ReadVersion.csv,Read,Read1,VEHICLE,CHARM,Study1,U,40,11,Test,User,-,,Recall,Recall1,765,,0,-1,-1,0,0,,1
M20317201JN,52st7c9tqe,"Mediated JOLs",1,69,2024-04-20T03:41:20+00:00,0.74682688713074,1,versionA_stim.csv,ReadVersion.csv,Read,Read1,HARD,COTTON,Study1,M,20,47,Test,User,-,,Recall,Recall1,607,,0,-1,-1,0,0,,1
M20317201JN,52st7c9tqe,"Mediated JOLs",1,70,2024-04-20T03:41:21+00:00,0.64564800262451,1,versionA_stim.csv,ReadVersion.csv,Read,Read1,AFFECTION,LOVE,Study1,F,31,13,Test,User,-,,Recall,Recall1,530,,0,-1,-1,0,0,,1
M20317201JN,52st7c9tqe,"Mediated JOLs",1,71,2024-04-20T03:41:22+00:00,1.6044969558716,1,versionA_stim.csv,ReadVersion.csv,Read,Read1,MEAT,KEYS,Study1,U,41,23,Test,User,-,,Recall,Recall1,1475,,0,-1,-1,0,0,,1
M20317201JN,52st7c9tqe,"Mediated JOLs",1,72,2024-04-20T03:41:24+00:00,1.4922080039978,1,versionA_stim.csv,ReadVersion.csv,Read,Read1,TEMPERATURE,MORNING,Study1,U,48,29,Test,User,-,,Recall,Recall1,1383,,0,-1,-1,0,0,,1
M20317201JN,52st7c9tqe,"Mediated JOLs",1,73,2024-04-20T03:41:25+00:00,0.81251311302185,1,versionA_stim.csv,ReadVersion.csv,Read,Read1,HYGIENE,CLEAN,Study1,F,28,25,Test,User,-,,Recall,Recall1,697,,0,-1,-1,0,0,,1
M20317201JN,52st7c9tqe,"Mediated JOLs",1,74,2024-04-20T03:41:25+00:00,0.81102395057678,1,versionA_stim.csv,ReadVersion.csv,Read,Read1,MIRROR,MAROON,Study1,U,36,48,Test,User,-,,Recall,Recall1,687,,0,-1,-1,0,0,,1
M20317201JN,52st7c9tqe,"Mediated JOLs",1,75,2024-04-20T03:41:27+00:00,1.493066072464,1,versionA_stim.csv,ReadVersion.csv,Read,Read1,SWAN,BIRD,Study1,F,26,51,Test,User,-,,Recall,Recall1,1380,,0,-1,-1,0,0,,1
M20317201JN,52st7c9tqe,"Mediated JOLs",1,76,2024-04-20T03:41:28+00:00,0.8238890171051,1,versionA_stim.csv,ReadVersion.csv,Read,Read1,BEACH,BOX,Study1,M,7,26,Test,User,-,,Recall,Recall1,694,,0,-1,-1,0,0,,1
M20317201JN,52st7c9tqe,"Mediated JOLs",1,77,2024-04-20T03:41:28+00:00,0.22034382820129,1,versionA_stim.csv,ReadVersion.csv,Read,Read1,STRETCH,CLOTH,Study1,U,37,43,Test,User,-,,Recall,Recall1,95,,0,-1,-1,0,0,,1
M20317201JN,52st7c9tqe,"Mediated JOLs",1,78,2024-04-20T03:41:28+00:00,0.32084512710571,1,versionA_stim.csv,ReadVersion.csv,Read,Read1,MULE,DONKEY,Study1,F,24,35,Test,User,-,,Recall,Recall1,188,,0,-1,-1,0,0,,1
M20317201JN,52st7c9tqe,"Mediated JOLs",1,79,2024-04-20T03:41:30+00:00,1.725368976593,1,versionA_stim.csv,ReadVersion.csv,Read,Read1,CRY,BOTTLE,Study1,M,16,15,Test,User,-,,Recall,Recall1,1615,,0,-1,-1,0,0,,1
M20317201JN,52st7c9tqe,"Mediated JOLs",1,80,2024-04-20T03:41:35+00:00,5.2589550018311,1,versionA_stim.csv,ReadVersion.csv,Read,Read1,DAY,DARK,Study1,M,18,31,Test,User,-,,Recall,Recall1,5144,WEEK,25,1370,4440,0,0,,1
M20317201JN,52st7c9tqe,"Mediated JOLs",1,81,2024-04-20T03:41:37+00:00,2.1358249187469,1,versionA_stim.csv,ReadVersion.csv,Read,Read1,WORD,SENTENCE,Study1,F,27,22,Test,User,-,,Recall,Recall1,2024,,0,-1,-1,0,0,,1
M20317201JN,52st7c9tqe,"Mediated JOLs",1,82,2024-04-20T03:41:38+00:00,0.8030731678009,1,versionA_stim.csv,ReadVersion.csv,Read,Read1,GIVE,STEAK,Study1,U,38,49,Test,User,-,,Recall,Recall1,617,,0,-1,-1,0,0,,1
M20317201JN,52st7c9tqe,"Mediated JOLs",1,83,2024-04-20T03:41:43+00:00,5.0679378509521,1,versionA_stim.csv,ReadVersion.csv,Read,Read1,HORSE,WHEEL,Study1,M,14,9,Test,User,-,,Recall,Recall1,4867,Affection,14.285714285714,1715,3970,0,0,,1
M20317201JN,52st7c9tqe,"Mediated JOLs",1,84,2024-04-20T03:41:46+00:00,3.0330109596252,1,versionA_stim.csv,ReadVersion.csv,Read,Read1,MULE,DONKEY,Study1,F,30,8,Test,User,-,,Recall,Recall1,2919,DONKEY,100,979,1962,1,1,,1
M20317201JN,52st7c9tqe,"Mediated JOLs",1,85,2024-04-20T03:41:51+00:00,4.4989981651306,1,versionA_stim.csv,ReadVersion.csv,Read,Read1,LION,STRIPES,Study1,M,6,24,Test,User,-,,Recall,Recall1,4379,STRIPES,100,2565,3620,1,1,,1
M20317201JN,52st7c9tqe,"Mediated JOLs",1,86,2024-04-20T03:41:52+00:00,1.0696220397949,1,versionA_stim.csv,ReadVersion.csv,Read,Read1,WAR,QUIET,Study1,M,8,37,Test,User,-,,Recall,Recall1,954,,0,-1,-1,0,0,,1
M20317201JN,52st7c9tqe,"Mediated JOLs",1,87,2024-04-20T03:41:54+00:00,2.5081379413605,1,versionA_stim.csv,ReadVersion.csv,Read,Read1,SHELL,SHAKE,Study1,U,43,16,Test,User,-,,Recall,Recall1,2393,SHAKE,100,1019,1366,1,1,,1
M20317201JN,52st7c9tqe,"Mediated JOLs",1,88,2024-04-20T03:41:57+00:00,2.16952085495,1,versionA_stim.csv,ReadVersion.csv,Read,Read1,NAP,SLEEP,Study1,F,29,45,Test,User,-,,Recall,Recall1,2044,,0,-1,-1,0,0,,1
M20317201JN,52st7c9tqe,"Mediated JOLs",1,89,2024-04-20T03:41:58+00:00,1.4993641376495,1,versionA_stim.csv,ReadVersion.csv,Read,Read1,CAKE,HAND,Study1,U,49,30,Test,User,-,,Recall,Recall1,1396,,0,-1,-1,0,0,,1
M20317201JN,52st7c9tqe,"Mediated JOLs",1,90,2024-04-20T03:42:02+00:00,4.3068978786469,1,versionA_stim.csv,ReadVersion.csv,Read,Read1,CEILING,CARPET,Study1,M,15,27,Test,User,-,,Recall,Recall1,4176,FLOOR,18.181818181818,2448,2985,0,0,,1
M20317201JN,52st7c9tqe,"Mediated JOLs",1,91,2024-04-20T03:42:04+00:00,1.6030659675598,1,versionA_stim.csv,ReadVersion.csv,Read,Read1,TREE,SYRUP,Study1,M,11,46,Test,User,-,,Recall,Recall1,1488,,0,-1,-1,0,0,,1
M20317201JN,52st7c9tqe,"Mediated JOLs",1,92,2024-04-20T03:42:07+00:00,3.0265600681305,1,versionA_stim.csv,ReadVersion.csv,Read,Read1,WAGE,MONEY,Study1,F,22,14,Test,User,-,,Recall,Recall1,2915,GAP,0,1948,2181,0,0,,1
M20317201JN,52st7c9tqe,"Mediated JOLs",1,93,2024-04-20T03:42:08+00:00,1.1236159801483,1,versionA_stim.csv,ReadVersion.csv,Read,Read1,CIRCLE,DANCE,Study1,M,13,40,Test,User,-,,Recall,Recall1,1013,,0,-1,-1,0,0,,1
M20317201JN,52st7c9tqe,"Mediated JOLs",1,94,2024-04-20T03:42:09+00:00,0.70468997955322,1,versionA_stim.csv,ReadVersion.csv,Read,Read1,LITTER,TRASH,Study1,F,21,19,Test,User,-,,Recall,Recall1,588,,0,-1,-1,0,0,,1
M20317201JN,52st7c9tqe,"Mediated JOLs",1,95,2024-04-20T03:42:10+00:00,0.8754551410675,1,versionA_stim.csv,ReadVersion.csv,Read,Read1,BAT,BOUNCE,Study1,M,12,41,Test,User,-,,Recall,Recall1,772,,0,-1,-1,0,0,,1
M20317201JN,52st7c9tqe,"Mediated JOLs",1,96,2024-04-20T03:42:10+00:00,0.73496985435486,1,versionA_stim.csv,ReadVersion.csv,Read,Read1,TOOTH,HAIR,Study1,M,19,36,Test,User,-,,Recall,Recall1,611,,0,-1,-1,0,0,,1
M20317201JN,52st7c9tqe,"Mediated JOLs",1,97,2024-04-20T03:42:11+00:00,0.66740298271179,1,versionA_stim.csv,ReadVersion.csv,Read,Read1,ORCHID,FLOWER,Study1,F,34,17,Test,User,-,,Recall,Recall1,559,,0,-1,-1,0,0,,1
M20317201JN,52st7c9tqe,"Mediated JOLs",1,98,2024-04-20T03:42:12+00:00,0.66496300697327,1,versionA_stim.csv,ReadVersion.csv,Read,Read1,TUNA,FISH,Study1,F,35,44,Test,User,-,,Recall,Recall1,545,,0,-1,-1,0,0,,1
M20317201JN,52st7c9tqe,"Mediated JOLs",1,99,2024-04-20T03:42:12+00:00,0.62366008758545,1,versionA_stim.csv,ReadVersion.csv,Read,Read1,WEDDING,FINGER,Study1,M,17,12,Test,User,-,,Recall,Recall1,507,,0,-1,-1,0,0,,1
M20317201JN,52st7c9tqe,"Mediated JOLs",1,100,2024-04-20T03:42:13+00:00,0.6249680519104,1,versionA_stim.csv,ReadVersion.csv,Read,Read1,CRACKLE,ELECTION,Study1,U,39,39,Test,User,-,,Recall,Recall1,513,,0,-1,-1,0,0,,1
M20317201JN,52st7c9tqe,"Mediated JOLs",1,101,2024-04-20T03:42:14+00:00,0.69673299789429,1,versionA_stim.csv,ReadVersion.csv,Read,Read1,SIP,DRINK,Study1,F,32,32,Test,User,-,,Recall,Recall1,591,,0,-1,-1,0,0,,1
M20317201JN,52st7c9tqe,"Mediated JOLs",1,102,2024-04-20T03:42:14+00:00,0.60146284103394,1,versionA_stim.csv,ReadVersion.csv,Read,Read1,ROUGH,SILK,Study1,M,10,7,Test,User,-,,Recall,Recall1,481,,0,-1,-1,0,0,,1
M20317201JN,52st7c9tqe,"Mediated JOLs",1,103,2024-04-20T03:42:15+00:00,0.70516610145569,1,versionA_stim.csv,ReadVersion.csv,Read,Read1,FUZZY,BANG,Study1,U,50,10,Test,User,-,,Recall,Recall1,594,,0,-1,-1,0,0,,1
M20317201JN,52st7c9tqe,"Mediated JOLs",1,104,2024-04-20T03:42:16+00:00,1.0548179149628,1,versionA_stim.csv,ReadVersion.csv,Read,Read1,ROOT,PLANT,Study1,F,25,20,Test,User,-,,Recall,Recall1,940,,0,-1,-1,0,0,,1
M20317201JN,52st7c9tqe,"Mediated JOLs",1,105,2024-04-20T03:42:17+00:00,1.1034731864929,1,versionA_stim.csv,ReadVersion.csv,Read,Read1,SCALP,HEAD,Study1,F,23,21,Test,User,-,,Recall,Recall1,997,,0,-1,-1,0,0,,1
M20317201JN,52st7c9tqe,"Mediated JOLs",1,106,2024-04-20T03:42:29+00:00,11.693647861481,1,versionA_stim.csv,ReadVersion.csv,Read,Read1,,,,,,0,Instruct,-,10,"You will now be presented with a new set of word pairs. Please study each pair. Remember that your memory will be tested! When finished, press Enter to move to the next pair.",Initial_Instruct,Instruct4,11576,,,-1,-1,,,,1
M20317201JN,52st7c9tqe,"Mediated JOLs",1,107,2024-04-20T03:42:29+00:00,0.65418696403503,1,versionA_stim.csv,ReadVersion.csv,Read,Read1,,,,,,0,Instruct,User,-,"Press Enter when you are readty to begin",,Instruct11,548,,,-1,-1,,,,1
M20317201JN,52st7c9tqe,"Mediated JOLs",1,108,2024-04-20T03:42:31+00:00,1.0591490268707,1,versionA_stim.csv,ReadVersion.csv,Read,Read1,SPRING,MARCH,BUFFER3,Buffer,59,61,Study,User,-,,Study/JOL,BUFFER2,946,,,-1,-1,,,,1
M20317201JN,52st7c9tqe,"Mediated JOLs",1,109,2024-04-20T03:42:33+00:00,2.0553660392761,1,versionA_stim.csv,ReadVersion.csv,Read,Read1,MOON,SPACE,BUFFER2,Buffer,54,56,Study,User,-,,Study/JOL,BUFFER2,1950,,,-1,-1,,,,1
M20317201JN,52st7c9tqe,"Mediated JOLs",1,110,2024-04-20T03:42:34+00:00,1.0187270641327,1,versionA_stim.csv,ReadVersion.csv,Read,Read1,SHERRIF,POLICE,BUFFER2,Buffer,52,52,Study,User,-,,Study/JOL,BUFFER2,905,,,-1,-1,,,,1
M20317201JN,52st7c9tqe,"Mediated JOLs",1,111,2024-04-20T03:42:35+00:00,1.0671088695526,1,versionA_stim.csv,ReadVersion.csv,Read,Read1,THING,STUFF,BUFFER2,Buffer,55,55,Study,User,-,,Study/JOL,BUFFER2,964,,,-1,-1,,,,1
M20317201JN,52st7c9tqe,"Mediated JOLs",1,112,2024-04-20T03:42:36+00:00,1.0540981292725,1,versionA_stim.csv,ReadVersion.csv,Read,Read1,MONTH,YEAR,BUFFER3,Buffer,57,59,Study,User,-,,Study/JOL,BUFFER2,949,,,-1,-1,,,,1
M20317201JN,52st7c9tqe,"Mediated JOLs",1,113,2024-04-20T03:42:37+00:00,0.78360390663147,1,versionA_stim.csv,ReadVersion.csv,Read,Read1,PUSH,CLUTTER,Study2,U,96,66,Study,User,-,,Study/JOL,"Study Phase2",674,,,-1,-1,,,,1
M20317201JN,52st7c9tqe,"Mediated JOLs",1,114,2024-04-20T03:42:37+00:00,0.3250629901886,1,versionA_stim.csv,ReadVersion.csv,Read,Read1,WINDOW,KNOB,Study2,M,74,88,Study,User,-,,Study/JOL,"Study Phase2",207,,,-1,-1,,,,1
M20317201JN,52st7c9tqe,"Mediated JOLs",1,115,2024-04-20T03:42:37+00:00,0.35201215744019,1,versionA_stim.csv,ReadVersion.csv,Read,Read1,STRONG,ACCIDENT,Study2,U,94,92,Study,User,-,,Study/JOL,"Study Phase2",243,,,-1,-1,,,,1
M20317201JN,52st7c9tqe,"Mediated JOLs",1,116,2024-04-20T03:42:38+00:00,0.35949897766113,1,versionA_stim.csv,ReadVersion.csv,Read,Read1,BOTH,OUNCE,Study2,U,102,96,Study,User,-,,Study/JOL,"Study Phase2",244,,,-1,-1,,,,1
M20317201JN,52st7c9tqe,"Mediated JOLs",1,117,2024-04-20T03:42:40+00:00,2.7161359786987,1,versionA_stim.csv,ReadVersion.csv,Read,Read1,NURSE,LAWYER,Study2,M,66,75,Study,User,-,,Study/JOL,"Study Phase2",1776,,,-1,-1,,,,1
M20317201JN,52st7c9tqe,"Mediated JOLs",1,118,2024-04-20T03:42:43+00:00,2.3592779636383,1,versionA_stim.csv,ReadVersion.csv,Read,Read1,HORNET,STING,Study2,F,85,85,Study,User,-,,Study/JOL,"Study Phase2",2239,,,-1,-1,,,,1
M20317201JN,52st7c9tqe,"Mediated JOLs",1,119,2024-04-20T03:42:44+00:00,1.0451838970184,1,versionA_stim.csv,ReadVersion.csv,Read,Read1,RAKE,SEED,Study2,M,69,82,Study,User,-,,Study/JOL,"Study Phase2",941,,,-1,-1,,,,1
M20317201JN,52st7c9tqe,"Mediated JOLs",1,120,2024-04-20T03:42:45+00:00,1.2804670333862,1,versionA_stim.csv,ReadVersion.csv,Read,Read1,INCENSE,SMELL,Study2,F,83,104,Study,User,-,,Study/JOL,"Study Phase2",1165,,,-1,-1,,,,1
M20317201JN,52st7c9tqe,"Mediated JOLs",1,121,2024-04-20T03:42:46+00:00,1.1907160282135,1,versionA_stim.csv,ReadVersion.csv,Read,Read1,HEAVY,FEATHER,Study2,M,68,102,Study,User,-,,Study/JOL,"Study Phase2",1083,,,-1,-1,,,,1
M20317201JN,52st7c9tqe,"Mediated JOLs",1,122,2024-04-20T03:42:48+00:00,1.524717092514,1,versionA_stim.csv,ReadVersion.csv,Read,Read1,FEUD,FIGHT,Study2,F,86,69,Study,User,-,,Study/JOL,"Study Phase2",1403,,,-1,-1,,,,1
M20317201JN,52st7c9tqe,"Mediated JOLs",1,123,2024-04-20T03:42:49+00:00,1.1461689472198,1,versionA_stim.csv,ReadVersion.csv,Read,Read1,SOAP,DRINK,Study2,M,67,79,Study,User,-,,Study/JOL,"Study Phase2",1040,,,-1,-1,,,,1
M20317201JN,52st7c9tqe,"Mediated JOLs",1,124,2024-04-20T03:42:50+00:00,0.96612691879272,1,versionA_stim.csv,ReadVersion.csv,Read,Read1,LEASE,TOIL,Study2,U,101,78,Study,User,-,,Study/JOL,"Study Phase2",853,,,-1,-1,,,,1
M20317201JN,52st7c9tqe,"Mediated JOLs",1,125,2024-04-20T03:42:51+00:00,1.096125125885,1,versionA_stim.csv,ReadVersion.csv,Read,Read1,BRIDGE,WATER,Study2,F,90,101,Study,User,-,,Study/JOL,"Study Phase2",983,,,-1,-1,,,,1
M20317201JN,52st7c9tqe,"Mediated JOLs",1,126,2024-04-20T03:42:52+00:00,0.90508389472961,1,versionA_stim.csv,ReadVersion.csv,Read,Read1,DEATH,BUSINESS,Study2,U,99,62,Study,User,-,,Study/JOL,"Study Phase2",790,,,-1,-1,,,,1
M20317201JN,52st7c9tqe,"Mediated JOLs",1,127,2024-04-20T03:42:53+00:00,0.8468451499939,1,versionA_stim.csv,ReadVersion.csv,Read,Read1,CHILL,COLD,Study2,F,87,86,Study,User,-,,Study/JOL,"Study Phase2",733,,,-1,-1,,,,1
M20317201JN,52st7c9tqe,"Mediated JOLs",1,128,2024-04-20T03:42:54+00:00,1.0984148979187,1,versionA_stim.csv,ReadVersion.csv,Read,Read1,DOCUMENT,PAPER,Study2,F,82,80,Study,User,-,,Study/JOL,"Study Phase2",985,,,-1,-1,,,,1
M20317201JN,52st7c9tqe,"Mediated JOLs",1,129,2024-04-20T03:42:55+00:00,1.0221018791199,1,versionA_stim.csv,ReadVersion.csv,Read,Read1,CHOP,CUT,Study2,F,77,105,Study,User,-,,Study/JOL,"Study Phase2",915,,,-1,-1,,,,1
M20317201JN,52st7c9tqe,"Mediated JOLs",1,130,2024-04-20T03:42:56+00:00,1.2478501796722,1,versionA_stim.csv,ReadVersion.csv,Read,Read1,GRILL,THIGH,Study2,M,72,70,Study,User,-,,Study/JOL,"Study Phase2",1137,,,-1,-1,,,,1
M20317201JN,52st7c9tqe,"Mediated JOLs",1,131,2024-04-20T03:42:58+00:00,2.2350869178772,1,versionA_stim.csv,ReadVersion.csv,Read,Read1,REALITY,ISLAND,Study2,M,64,98,Study,User,-,,Study/JOL,"Study Phase2",2102,,,-1,-1,,,,1
M20317201JN,52st7c9tqe,"Mediated JOLs",1,132,2024-04-20T03:42:59+00:00,1.1772630214691,1,versionA_stim.csv,ReadVersion.csv,Read,Read1,BLAZE,FIRE,Study2,F,81,106,Study,User,-,,Study/JOL,"Study Phase2",1048,,,-1,-1,,,,1
M20317201JN,52st7c9tqe,"Mediated JOLs",1,133,2024-04-20T03:43:01+00:00,1.2633221149445,1,versionA_stim.csv,ReadVersion.csv,Read,Read1,RAZOR,MUSCLE,Study2,M,75,97,Study,User,-,,Study/JOL,"Study Phase2",1151,,,-1,-1,,,,1
M20317201JN,52st7c9tqe,"Mediated JOLs",1,134,2024-04-20T03:43:02+00:00,1.0646188259125,1,versionA_stim.csv,ReadVersion.csv,Read,Read1,CACTUS,PLANT,Study2,F,76,94,Study,User,-,,Study/JOL,"Study Phase2",948,,,-1,-1,,,,1
M20317201JN,52st7c9tqe,"Mediated JOLs",1,135,2024-04-20T03:43:03+00:00,1.0087201595306,1,versionA_stim.csv,ReadVersion.csv,Read,Read1,OVEN,BASKET,Study2,M,71,87,Study,User,-,,Study/JOL,"Study Phase2",903,,,-1,-1,,,,1
M20317201JN,52st7c9tqe,"Mediated JOLs",1,136,2024-04-20T03:43:04+00:00,1.1139738559723,1,versionA_stim.csv,ReadVersion.csv,Read,Read1,SUMMER,SNOW,Study2,M,61,95,Study,User,-,,Study/JOL,"Study Phase2",998,,,-1,-1,,,,1
M20317201JN,52st7c9tqe,"Mediated JOLs",1,137,2024-04-20T03:43:05+00:00,1.3379390239716,1,versionA_stim.csv,ReadVersion.csv,Read,Read1,VALLEY,PEAK,Study2,M,73,99,Study,User,-,,Study/JOL,"Study Phase2",1234,,,-1,-1,,,,1
M20317201JN,52st7c9tqe,"Mediated JOLs",1,138,2024-04-20T03:43:07+00:00,2.213299036026,1,versionA_stim.csv,ReadVersion.csv,Read,Read1,ARTERY,BRONZE,Study2,U,103,91,Study,User,-,,Study/JOL,"Study Phase2",2087,,,-1,-1,,,,1
M20317201JN,52st7c9tqe,"Mediated JOLs",1,139,2024-04-20T03:43:09+00:00,1.2961258888245,1,versionA_stim.csv,ReadVersion.csv,Read,Read1,PANTS,COLLAR,Study2,M,63,63,Study,User,-,,Study/JOL,"Study Phase2",1174,,,-1,-1,,,,1
M20317201JN,52st7c9tqe,"Mediated JOLs",1,140,2024-04-20T03:43:11+00:00,2.4194571971893,1,versionA_stim.csv,ReadVersion.csv,Read,Read1,ATTIRE,CLOTHES,Study2,F,79,64,Study,User,-,,Study/JOL,"Study Phase2",2288,,,-1,-1,,,,1
M20317201JN,52st7c9tqe,"Mediated JOLs",1,141,2024-04-20T03:43:12+00:00,1.1061408519745,1,versionA_stim.csv,ReadVersion.csv,Read,Read1,HERD,COW,Study2,F,88,74,Study,User,-,,Study/JOL,"Study Phase2",976,,,-1,-1,,,,1
M20317201JN,52st7c9tqe,"Mediated JOLs",1,142,2024-04-20T03:43:13+00:00,1.0010671615601,1,versionA_stim.csv,ReadVersion.csv,Read,Read1,EYES,SMELL,Study2,M,65,77,Study,User,-,,Study/JOL,"Study Phase2",888,,,-1,-1,,,,1
M20317201JN,52st7c9tqe,"Mediated JOLs",1,143,2024-04-20T03:43:15+00:00,1.3941719532013,1,versionA_stim.csv,ReadVersion.csv,Read,Read1,KING,VASE,Study2,U,91,83,Study,User,-,,Study/JOL,"Study Phase2",1287,,,-1,-1,,,,1
M20317201JN,52st7c9tqe,"Mediated JOLs",1,144,2024-04-20T03:43:16+00:00,1.7190308570862,1,versionA_stim.csv,ReadVersion.csv,Read,Read1,CASH,LEG,Study2,U,105,84,Study,User,-,,Study/JOL,"Study Phase2",1600,,,-1,-1,,,,1
M20317201JN,52st7c9tqe,"Mediated JOLs",1,145,2024-04-20T03:43:17+00:00,1.1363739967346,1,versionA_stim.csv,ReadVersion.csv,Read,Read1,CHISEL,HAMMER,Study2,F,78,68,Study,User,-,,Study/JOL,"Study Phase2",1020,,,-1,-1,,,,1
M20317201JN,52st7c9tqe,"Mediated JOLs",1,146,2024-04-20T03:43:19+00:00,1.5807840824127,1,versionA_stim.csv,ReadVersion.csv,Read,Read1,WASP,BUG,Study2,F,89,73,Study,User,-,,Study/JOL,"Study Phase2",1467,,,-1,-1,,,,1
M20317201JN,52st7c9tqe,"Mediated JOLs",1,147,2024-04-20T03:43:21+00:00,2.1774249076843,1,versionA_stim.csv,ReadVersion.csv,Read,Read1,MIRROR,CHILDREN,Study2,U,104,103,Study,User,-,,Study/JOL,"Study Phase2",2068,,,-1,-1,,,,1
M20317201JN,52st7c9tqe,"Mediated JOLs",1,148,2024-04-20T03:43:23+00:00,2.0819561481476,1,versionA_stim.csv,ReadVersion.csv,Read,Read1,BENCH,HORN,Study2,U,98,93,Study,User,-,,Study/JOL,"Study Phase2",1968,,,-1,-1,,,,1
M20317201JN,52st7c9tqe,"Mediated JOLs",1,149,2024-04-20T03:43:25+00:00,1.2381808757782,1,versionA_stim.csv,ReadVersion.csv,Read,Read1,CHERRY,RED,Study2,F,80,81,Study,User,-,,Study/JOL,"Study Phase2",1121,,,-1,-1,,,,1
M20317201JN,52st7c9tqe,"Mediated JOLs",1,150,2024-04-20T03:43:26+00:00,1.4141891002655,1,versionA_stim.csv,ReadVersion.csv,Read,Read1,TRAP,CAVE,Study2,M,70,65,Study,User,-,,Study/JOL,"Study Phase2",1302,,,-1,-1,,,,1
M20317201JN,52st7c9tqe,"Mediated JOLs",1,151,2024-04-20T03:43:28+00:00,1.5841279029846,1,versionA_stim.csv,ReadVersion.csv,Read,Read1,SICK,HIDE,Study2,U,100,67,Study,User,-,,Study/JOL,"Study Phase2",1477,,,-1,-1,,,,1
M20317201JN,52st7c9tqe,"Mediated JOLs",1,152,2024-04-20T03:43:30+00:00,2.028608083725,1,versionA_stim.csv,ReadVersion.csv,Read,Read1,DIETARY,SACK,Study2,U,97,76,Study,User,-,,Study/JOL,"Study Phase2",1913,,,-1,-1,,,,1
M20317201JN,52st7c9tqe,"Mediated JOLs",1,153,2024-04-20T03:43:31+00:00,1.506404876709,1,versionA_stim.csv,ReadVersion.csv,Read,Read1,SUGAR,RIDDLE,Study2,U,95,90,Study,User,-,,Study/JOL,"Study Phase2",1401,,,-1,-1,,,,1
M20317201JN,52st7c9tqe,"Mediated JOLs",1,154,2024-04-20T03:43:33+00:00,1.8644571304321,1,versionA_stim.csv,ReadVersion.csv,Read,Read1,SCHOOL,STOP,Study2,M,62,72,Study,User,-,,Study/JOL,"Study Phase2",1749,,,1247,1247,,,,1
M20317201JN,52st7c9tqe,"Mediated JOLs",1,155,2024-04-20T03:43:34+00:00,1.5009498596191,1,versionA_stim.csv,ReadVersion.csv,Read,Read1,LEAGUE,BASEBALL,Study2,F,84,89,Study,User,-,,Study/JOL,"Study Phase2",1397,,,-1,-1,,,,1
M20317201JN,52st7c9tqe,"Mediated JOLs",1,156,2024-04-20T03:43:35+00:00,0.81604504585266,1,versionA_stim.csv,ReadVersion.csv,Read,Read1,HAPPY,CAR,Study2,U,92,100,Study,User,-,,Study/JOL,"Study Phase2",702,,,-1,-1,,,,1
M20317201JN,52st7c9tqe,"Mediated JOLs",1,157,2024-04-20T03:43:36+00:00,1.1462380886078,1,versionA_stim.csv,ReadVersion.csv,Read,Read1,ART,WOLF,Study2,U,93,71,Study,User,-,,Study/JOL,"Study Phase2",1034,,,-1,-1,,,,1
M20317201JN,52st7c9tqe,"Mediated JOLs",1,158,2024-04-20T03:43:37+00:00,1.0448560714722,1,versionA_stim.csv,ReadVersion.csv,Read,Read1,NOODLE,STRING,BUFFER4,Buffer,107,107,Study,User,-,,Study/JOL,BUFFER2,936,,,-1,-1,,,,1
M20317201JN,52st7c9tqe,"Mediated JOLs",1,159,2024-04-20T03:43:38+00:00,0.97163987159729,1,versionA_stim.csv,ReadVersion.csv,Read,Read1,GEESE,GOOSE,BUFFER2,Buffer,51,54,Study,User,-,,Study/JOL,BUFFER2,864,,,-1,-1,,,,1
M20317201JN,52st7c9tqe,"Mediated JOLs",1,160,2024-04-20T03:43:40+00:00,1.1549789905548,1,versionA_stim.csv,ReadVersion.csv,Read,Read1,CARROT,POTATO,BUFFER4,Buffer,106,110,Study,User,-,,Study/JOL,BUFFER2,1038,,,-1,-1,,,,1
M20317201JN,52st7c9tqe,"Mediated JOLs",1,161,2024-04-20T03:43:41+00:00,1.0596971511841,1,versionA_stim.csv,ReadVersion.csv,Read,Read1,OCTOBER,SPOOKY,BUFFER3,Buffer,60,60,Study,User,-,,Study/JOL,BUFFER2,957,,,-1,-1,,,,1
M20317201JN,52st7c9tqe,"Mediated JOLs",1,162,2024-04-20T03:43:42+00:00,1.2448787689209,1,versionA_stim.csv,ReadVersion.csv,Read,Read1,SHRIMP,FISH,BUFFER4,Buffer,108,111,Study,User,-,,Study/JOL,BUFFER2,1122,,,-1,-1,,,,1
M20317201JN,52st7c9tqe,"Mediated JOLs",1,163,2024-04-20T03:43:43+00:00,1.2188200950623,1,versionA_stim.csv,ReadVersion.csv,Read,Read1,,,,,,0,Instruct,User,-,"You have completed this section. Please press Enter.",Filler_Instruction,Instruct2,1090,,,-1,-1,,,,1
M20317201JN,52st7c9tqe,"Mediated JOLs",1,164,2024-04-20T03:45:43+00:00,120.2546710968,1,versionA_stim.csv,ReadVersion.csv,Read,Read1,,,,,,0,FreeRecall,120,120,"Please list the 50 US states in alphabetical order. The task will automatically advance to the next screen after two minutes.",,Filler1,120001,"Wyoming Wisconsin Virginia Vermont Utah Texas South Virginia South Dakota Rhode Island Pennsylvania Ohio North Dakota New York New Jersey New Hampshire Iowa Indiana Illinois Hawaii ",0,11973,119872,0,0,,1
M20317201JN,52st7c9tqe,"Mediated JOLs",1,165,2024-04-20T03:45:54+00:00,10.927692890167,1,versionA_stim.csv,ReadVersion.csv,Read,Read1,,,,,,0,Instruct,-,10,"You will now be presented with the first word from each of the previously studied item pairs. Please type the missing word. If you do not know the word, you may guess or press Enter to skip forward to the next pair.",,Instruct3,10764,,,-1,-1,,,,1
M20317201JN,52st7c9tqe,"Mediated JOLs",1,166,2024-04-20T03:45:58+00:00,3.4415760040283,1,versionA_stim.csv,ReadVersion.csv,Read,Read1,KING,VASE,Study2,U,91,83,Test,User,-,,Recall,Recall2,3325,,0,-1,-1,0,0,,1
M20317201JN,52st7c9tqe,"Mediated JOLs",1,167,2024-04-20T03:45:59+00:00,1.0705239772797,1,versionA_stim.csv,ReadVersion.csv,Read,Read1,HEAVY,FEATHER,Study2,M,68,102,Test,User,-,,Recall,Recall2,957,,0,-1,-1,0,0,,1
M20317201JN,52st7c9tqe,"Mediated JOLs",1,168,2024-04-20T03:46:00+00:00,1.1607899665833,1,versionA_stim.csv,ReadVersion.csv,Read,Read1,STRONG,ACCIDENT,Study2,U,94,92,Test,User,-,,Recall,Recall2,1042,,0,-1,-1,0,0,,1
M20317201JN,52st7c9tqe,"Mediated JOLs",1,169,2024-04-20T03:46:01+00:00,0.78961300849915,1,versionA_stim.csv,ReadVersion.csv,Read,Read1,TRAP,CAVE,Study2,M,70,65,Test,User,-,,Recall,Recall2,672,,0,-1,-1,0,0,,1
M20317201JN,52st7c9tqe,"Mediated JOLs",1,170,2024-04-20T03:46:02+00:00,0.78576517105103,1,versionA_stim.csv,ReadVersion.csv,Read,Read1,PANTS,COLLAR,Study2,M,63,63,Test,User,-,,Recall,Recall2,670,,0,-1,-1,0,0,,1
M20317201JN,52st7c9tqe,"Mediated JOLs",1,171,2024-04-20T03:46:04+00:00,2.2031419277191,1,versionA_stim.csv,ReadVersion.csv,Read,Read1,RAKE,SEED,Study2,M,69,82,Test,User,-,,Recall,Recall2,2089,SEED,100,1138,1651,1,1,,1
M20317201JN,52st7c9tqe,"Mediated JOLs",1,172,2024-04-20T03:46:05+00:00,0.9258120059967,1,versionA_stim.csv,ReadVersion.csv,Read,Read1,SUGAR,RIDDLE,Study2,U,95,90,Test,User,-,,Recall,Recall2,807,,0,-1,-1,0,0,,1
M20317201JN,52st7c9tqe,"Mediated JOLs",1,173,2024-04-20T03:46:05+00:00,0.80187487602234,1,versionA_stim.csv,ReadVersion.csv,Read,Read1,HORNET,STING,Study2,F,85,85,Test,User,-,,Recall,Recall2,694,,0,-1,-1,0,0,,1
M20317201JN,52st7c9tqe,"Mediated JOLs",1,174,2024-04-20T03:46:07+00:00,1.8377981185913,1,versionA_stim.csv,ReadVersion.csv,Read,Read1,DIETARY,SACK,Study2,U,97,76,Test,User,-,,Recall,Recall2,1712,,0,-1,-1,0,0,,1
M20317201JN,52st7c9tqe,"Mediated JOLs",1,175,2024-04-20T03:46:10+00:00,2.9685730934143,1,versionA_stim.csv,ReadVersion.csv,Read,Read1,BLAZE,FIRE,Study2,F,81,106,Test,User,-,,Recall,Recall2,2861,FIRE,100,1767,2012,1,1,,1
M20317201JN,52st7c9tqe,"Mediated JOLs",1,176,2024-04-20T03:46:13+00:00,2.4772088527679,1,versionA_stim.csv,ReadVersion.csv,Read,Read1,SUMMER,SNOW,Study2,M,61,95,Test,User,-,,Recall,Recall2,2364,SNOW,100,1103,1377,1,1,,1
M20317201JN,52st7c9tqe,"Mediated JOLs",1,177,2024-04-20T03:46:14+00:00,1.1102931499481,1,versionA_stim.csv,ReadVersion.csv,Read,Read1,BENCH,HORN,Study2,U,98,93,Test,User,-,,Recall,Recall2,991,,0,-1,-1,0,0,,1
M20317201JN,52st7c9tqe,"Mediated JOLs",1,178,2024-04-20T03:46:15+00:00,1.4844808578491,1,versionA_stim.csv,ReadVersion.csv,Read,Read1,FEUD,FIGHT,Study2,F,86,69,Test,User,-,,Recall,Recall2,1372,,0,-1,-1,0,0,,1
M20317201JN,52st7c9tqe,"Mediated JOLs",1,179,2024-04-20T03:46:17+00:00,1.5775389671326,1,versionA_stim.csv,ReadVersion.csv,Read,Read1,HERD,COW,Study2,F,88,74,Test,User,-,,Recall,Recall2,1450,,0,-1,-1,0,0,,1
M20317201JN,52st7c9tqe,"Mediated JOLs",1,180,2024-04-20T03:46:21+00:00,3.6032619476318,1,versionA_stim.csv,ReadVersion.csv,Read,Read1,ATTIRE,CLOTHES,Study2,F,79,64,Test,User,-,,Recall,Recall2,3483,,0,-1,-1,0,0,,1
M20317201JN,52st7c9tqe,"Mediated JOLs",1,181,2024-04-20T03:46:21+00:00,0.85354614257812,1,versionA_stim.csv,ReadVersion.csv,Read,Read1,WINDOW,KNOB,Study2,M,74,88,Test,User,-,,Recall,Recall2,739,,0,-1,-1,0,0,,1
M20317201JN,52st7c9tqe,"Mediated JOLs",1,182,2024-04-20T03:46:22+00:00,0.68571805953979,1,versionA_stim.csv,ReadVersion.csv,Read,Read1,LEAGUE,BASEBALL,Study2,F,84,89,Test,User,-,,Recall,Recall2,563,,0,-1,-1,0,0,,1
M20317201JN,52st7c9tqe,"Mediated JOLs",1,183,2024-04-20T03:46:26+00:00,4.0717599391937,1,versionA_stim.csv,ReadVersion.csv,Read,Read1,SOAP,DRINK,Study2,M,67,79,Test,User,-,,Recall,Recall2,3967,DRINK,100,1109,3090,1,1,,1
M20317201JN,52st7c9tqe,"Mediated JOLs",1,184,2024-04-20T03:46:29+00:00,2.5890069007874,1,versionA_stim.csv,ReadVersion.csv,Read,Read1,CACTUS,PLANT,Study2,F,76,94,Test,User,-,,Recall,Recall2,2470,PLANT,100,1245,1599,1,1,,1
M20317201JN,52st7c9tqe,"Mediated JOLs",1,185,2024-04-20T03:46:31+00:00,2.550882101059,1,versionA_stim.csv,ReadVersion.csv,Read,Read1,ARTERY,BRONZE,Study2,U,103,91,Test,User,-,,Recall,Recall2,2434,,0,-1,-1,0,0,,1
M20317201JN,52st7c9tqe,"Mediated JOLs",1,186,2024-04-20T03:46:33+00:00,1.8819959163666,1,versionA_stim.csv,ReadVersion.csv,Read,Read1,SCHOOL,STOP,Study2,M,62,72,Test,User,-,,Recall,Recall2,1767,,0,-1,-1,0,0,,1
M20317201JN,52st7c9tqe,"Mediated JOLs",1,187,2024-04-20T03:46:34+00:00,1.1376249790192,1,versionA_stim.csv,ReadVersion.csv,Read,Read1,BOTH,OUNCE,Study2,U,102,96,Test,User,-,,Recall,Recall2,1029,,0,-1,-1,0,0,,1
M20317201JN,52st7c9tqe,"Mediated JOLs",1,188,2024-04-20T03:46:35+00:00,0.88363003730774,1,versionA_stim.csv,ReadVersion.csv,Read,Read1,CHERRY,RED,Study2,F,80,81,Test,User,-,,Recall,Recall2,768,,0,-1,-1,0,0,,1
M20317201JN,52st7c9tqe,"Mediated JOLs",1,189,2024-04-20T03:46:37+00:00,2.3109180927277,1,versionA_stim.csv,ReadVersion.csv,Read,Read1,WASP,BUG,Study2,F,89,73,Test,User,-,,Recall,Recall2,2193,,0,-1,-1,0,0,,1
M20317201JN,52st7c9tqe,"Mediated JOLs",1,190,2024-04-20T03:46:38+00:00,0.79912805557251,1,versionA_stim.csv,ReadVersion.csv,Read,Read1,DOCUMENT,PAPER,Study2,F,82,80,Test,User,-,,Recall,Recall2,679,,0,-1,-1,0,0,,1
M20317201JN,52st7c9tqe,"Mediated JOLs",1,191,2024-04-20T03:46:39+00:00,0.78514790534973,1,versionA_stim.csv,ReadVersion.csv,Read,Read1,CASH,LEG,Study2,U,105,84,Test,User,-,,Recall,Recall2,673,,0,-1,-1,0,0,,1
M20317201JN,52st7c9tqe,"Mediated JOLs",1,192,2024-04-20T03:46:40+00:00,0.72000408172607,1,versionA_stim.csv,ReadVersion.csv,Read,Read1,INCENSE,SMELL,Study2,F,83,104,Test,User,-,,Recall,Recall2,608,,0,-1,-1,0,0,,1
M20317201JN,52st7c9tqe,"Mediated JOLs",1,193,2024-04-20T03:46:41+00:00,0.98573684692383,1,versionA_stim.csv,ReadVersion.csv,Read,Read1,REALITY,ISLAND,Study2,M,64,98,Test,User,-,,Recall,Recall2,868,,0,-1,-1,0,0,,1
M20317201JN,52st7c9tqe,"Mediated JOLs",1,194,2024-04-20T03:46:43+00:00,2.6122610569,1,versionA_stim.csv,ReadVersion.csv,Read,Read1,VALLEY,PEAK,Study2,M,73,99,Test,User,-,,Recall,Recall2,2497,PEAK,100,1421,1622,1,1,,1
M20317201JN,52st7c9tqe,"Mediated JOLs",1,195,2024-04-20T03:46:44+00:00,1.0776560306549,1,versionA_stim.csv,ReadVersion.csv,Read,Read1,CHILL,COLD,Study2,F,87,86,Test,User,-,,Recall,Recall2,968,,0,-1,-1,0,0,,1
M20317201JN,52st7c9tqe,"Mediated JOLs",1,196,2024-04-20T03:46:45+00:00,0.78400993347168,1,versionA_stim.csv,ReadVersion.csv,Read,Read1,PUSH,CLUTTER,Study2,U,96,66,Test,User,-,,Recall,Recall2,668,,0,-1,-1,0,0,,1
M20317201JN,52st7c9tqe,"Mediated JOLs",1,197,2024-04-20T03:46:46+00:00,0.65188097953796,1,versionA_stim.csv,ReadVersion.csv,Read,Read1,EYES,SMELL,Study2,M,65,77,Test,User,-,,Recall,Recall2,539,,0,-1,-1,0,0,,1
M20317201JN,52st7c9tqe,"Mediated JOLs",1,198,2024-04-20T03:46:47+00:00,0.90260195732117,1,versionA_stim.csv,ReadVersion.csv,Read,Read1,MIRROR,CHILDREN,Study2,U,104,103,Test,User,-,,Recall,Recall2,786,,0,-1,-1,0,0,,1
M20317201JN,52st7c9tqe,"Mediated JOLs",1,199,2024-04-20T03:46:48+00:00,0.74468207359314,1,versionA_stim.csv,ReadVersion.csv,Read,Read1,DEATH,BUSINESS,Study2,U,99,62,Test,User,-,,Recall,Recall2,619,,0,-1,-1,0,0,,1
M20317201JN,52st7c9tqe,"Mediated JOLs",1,200,2024-04-20T03:46:48+00:00,0.72097611427307,1,versionA_stim.csv,ReadVersion.csv,Read,Read1,GRILL,THIGH,Study2,M,72,70,Test,User,-,,Recall,Recall2,599,,0,-1,-1,0,0,,1
M20317201JN,52st7c9tqe,"Mediated JOLs",1,201,2024-04-20T03:46:49+00:00,0.63874197006226,1,versionA_stim.csv,ReadVersion.csv,Read,Read1,ART,WOLF,Study2,U,93,71,Test,User,-,,Recall,Recall2,532,,0,-1,-1,0,0,,1
M20317201JN,52st7c9tqe,"Mediated JOLs",1,202,2024-04-20T03:46:50+00:00,1.0606169700623,1,versionA_stim.csv,ReadVersion.csv,Read,Read1,CHOP,CUT,Study2,F,77,105,Test,User,-,,Recall,Recall2,946,,0,-1,-1,0,0,,1
M20317201JN,52st7c9tqe,"Mediated JOLs",1,203,2024-04-20T03:46:51+00:00,0.57413291931152,1,versionA_stim.csv,ReadVersion.csv,Read,Read1,OVEN,BASKET,Study2,M,71,87,Test,User,-,,Recall,Recall2,468,,0,-1,-1,0,0,,1
M20317201JN,52st7c9tqe,"Mediated JOLs",1,204,2024-04-20T03:46:51+00:00,0.60122108459473,1,versionA_stim.csv,ReadVersion.csv,Read,Read1,LEASE,TOIL,Study2,U,101,78,Test,User,-,,Recall,Recall2,482,,0,-1,-1,0,0,,1
M20317201JN,52st7c9tqe,"Mediated JOLs",1,205,2024-04-20T03:46:52+00:00,0.75590300559998,1,versionA_stim.csv,ReadVersion.csv,Read,Read1,SICK,HIDE,Study2,U,100,67,Test,User,-,,Recall,Recall2,645,,0,-1,-1,0,0,,1
M20317201JN,52st7c9tqe,"Mediated JOLs",1,206,2024-04-20T03:46:53+00:00,0.79768204689026,1,versionA_stim.csv,ReadVersion.csv,Read,Read1,CHISEL,HAMMER,Study2,F,78,68,Test,User,-,,Recall,Recall2,680,,0,-1,-1,0,0,,1
M20317201JN,52st7c9tqe,"Mediated JOLs",1,207,2024-04-20T03:46:53+00:00,0.69330596923828,1,versionA_stim.csv,ReadVersion.csv,Read,Read1,NURSE,LAWYER,Study2,M,66,75,Test,User,-,,Recall,Recall2,580,,0,-1,-1,0,0,,1
M20317201JN,52st7c9tqe,"Mediated JOLs",1,208,2024-04-20T03:46:54+00:00,0.59888505935669,1,versionA_stim.csv,ReadVersion.csv,Read,Read1,BRIDGE,WATER,Study2,F,90,101,Test,User,-,,Recall,Recall2,470,,0,-1,-1,0,0,,1
M20317201JN,52st7c9tqe,"Mediated JOLs",1,209,2024-04-20T03:46:55+00:00,0.57442188262939,1,versionA_stim.csv,ReadVersion.csv,Read,Read1,HAPPY,CAR,Study2,U,92,100,Test,User,-,,Recall,Recall2,464,,0,-1,-1,0,0,,1
M20317201JN,52st7c9tqe,"Mediated JOLs",1,210,2024-04-20T03:46:55+00:00,0.53170204162598,1,versionA_stim.csv,ReadVersion.csv,Read,Read1,RAZOR,MUSCLE,Study2,M,75,97,Test,User,-,,Recall,Recall2,416,,0,-1,-1,0,0,,1
M20317201JN,52st7c9tqe,"Mediated JOLs",1,211,2024-04-20T03:46:56+00:00,1.1825320720673,1,versionA_stim.csv,ReadVersion.csv,Read,Read1,,,,,,0,Instruct,User,-,"You have completed this section. Please press Enter.",,Instruct7,1066,,,-1,-1,,,,1
M20317201JN,52st7c9tqe,"Mediated JOLs",1,212,2024-04-20T03:46:58+00:00,1.3487968444824,1,versionA_stim.csv,ReadVersion.csv,Read,Read1,,,,,,0,Instruct,User,-,"The following screen will ask you a few questions abour your experience today. You must complete these questions to receive credit.",,Instruct8,1226,,,-1,-1,,,,1
