Username,ID,ExperimentName,Session,Trial,Date,TimeDif,"Condition Number","Stimuli File","Order File","Condition Description","Condition Notes",Stimuli*Cue,Stimuli*Answer,Stimuli*Shuffle,"Stimuli*Stimuli Notes",Stimuli*Value,Procedure*Item,"Procedure*Trial Type","Procedure*Max Time","Procedure*Min Time",Procedure*Text,"Procedure*Procedure Notes",Procedure*Shuffle,Response*RT,Response*Response,Response*Accuracy,Response*RTfirst,Response*RTlast,Response*strictAcc,Response*lenientAcc,Response*focus,Response*Focus
M20325706DM,g51ooh5uc2,"Mediated JOLs",1,1,2024-03-05T20:10:21+00:00,7.7350070476532,3,versionB_stim.csv,ReadVersion.csv,Read,Read2,,,,,,0,Instruct,-,5,"In this section, you will be presented with a series of word pairs. Please study each word pair! Your memory will be tested!",Initial_Instruct,Instruct1,7666,,,-1,-1,,,,1
M20325706DM,g51ooh5uc2,"Mediated JOLs",1,2,2024-03-05T20:10:24+00:00,3.1383860111237,3,versionB_stim.csv,ReadVersion.csv,Read,Read2,,,,,,0,Instruct,User,-,"You will now begin. Press Enter when you are ready to begin.",,Instruct16,3060,,,-1,-1,,,,1
M20325706DM,g51ooh5uc2,"Mediated JOLs",1,3,2024-03-05T20:10:40+00:00,15.680451869965,3,versionB_stim.csv,ReadVersion.csv,Read,Read2,SPRING,MARCH,BUFFER3,Buffer,4,4,Study,User,-,,Study/JOL,BUFFER,15611,,,-1,-1,,,,1
M20325706DM,g51ooh5uc2,"Mediated JOLs",1,4,2024-03-05T20:10:45+00:00,5.4370260238647,3,versionB_stim.csv,ReadVersion.csv,Read,Read2,DAYS,WEAKS,BUFFER3,Buffer,1,3,Study,User,-,,Study/JOL,BUFFER,5353,,,-1,-1,,,,1
M20325706DM,g51ooh5uc2,"Mediated JOLs",1,5,2024-03-05T20:10:49+00:00,4.3271231651306,3,versionB_stim.csv,ReadVersion.csv,Read,Read2,TOOL,SHED,BUFFER3,Buffer,3,6,Study,User,-,,Study/JOL,BUFFER,4250,,,-1,-1,,,,1
M20325706DM,g51ooh5uc2,"Mediated JOLs",1,6,2024-03-05T20:10:51+00:00,2.0212848186493,3,versionB_stim.csv,ReadVersion.csv,Read,Read2,MONTH,YEAR,BUFFER3,Buffer,2,5,Study,User,-,,Study/JOL,BUFFER,1953,,,-1,-1,,,,1
M20325706DM,g51ooh5uc2,"Mediated JOLs",1,7,2024-03-05T20:10:55+00:00,3.2146761417389,3,versionB_stim.csv,ReadVersion.csv,Read,Read2,OCTOBER,SPOOKY,BUFFER3,Buffer,5,2,Study,User,-,,Study/JOL,BUFFER,3140,,,-1,-1,,,,1
M20325706DM,g51ooh5uc2,"Mediated JOLs",1,8,2024-03-05T20:10:57+00:00,2.0649099349976,3,versionB_stim.csv,ReadVersion.csv,Read,Read2,CHISEL,HAMMER,Study2,F,23,41,Study,User,-,,Study/JOL,"Study Phase",1984,,,-1,-1,,,,1
M20325706DM,g51ooh5uc2,"Mediated JOLs",1,9,2024-03-05T20:10:59+00:00,2.146017074585,3,versionB_stim.csv,ReadVersion.csv,Read,Read2,PUSH,CLUTTER,Study2,U,41,34,Study,User,-,,Study/JOL,"Study Phase",2069,,,-1,-1,,,,1
M20325706DM,g51ooh5uc2,"Mediated JOLs",1,10,2024-03-05T20:11:01+00:00,2.515585899353,3,versionB_stim.csv,ReadVersion.csv,Read,Read2,SUGAR,RIDDLE,Study2,U,40,22,Study,User,-,,Study/JOL,"Study Phase",2437,,,-1,-1,,,,1
M20325706DM,g51ooh5uc2,"Mediated JOLs",1,11,2024-03-05T20:11:03+00:00,1.9089391231537,3,versionB_stim.csv,ReadVersion.csv,Read,Read2,CHILL,COLD,Study2,F,32,49,Study,User,-,,Study/JOL,"Study Phase",1842,,,-1,-1,,,,1
M20325706DM,g51ooh5uc2,"Mediated JOLs",1,12,2024-03-05T20:11:05+00:00,2.1115448474884,3,versionB_stim.csv,ReadVersion.csv,Read,Read2,KING,VASE,Study2,U,36,21,Study,User,-,,Study/JOL,"Study Phase",2030,,,-1,-1,,,,1
M20325706DM,g51ooh5uc2,"Mediated JOLs",1,13,2024-03-05T20:11:09+00:00,3.1519529819489,3,versionB_stim.csv,ReadVersion.csv,Read,Read2,CASH,LEG,Study2,U,50,36,Study,User,-,,Study/JOL,"Study Phase",3075,,,-1,-1,,,,1
M20325706DM,g51ooh5uc2,"Mediated JOLs",1,14,2024-03-05T20:11:12+00:00,3.4696969985962,3,versionB_stim.csv,ReadVersion.csv,Read,Read2,BENCH,HORN,Study2,U,43,35,Study,User,-,,Study/JOL,"Study Phase",3400,,,-1,-1,,,,1
M20325706DM,g51ooh5uc2,"Mediated JOLs",1,15,2024-03-05T20:11:15+00:00,2.4968340396881,3,versionB_stim.csv,ReadVersion.csv,Read,Read2,HERD,COW,Study2,F,33,29,Study,User,-,,Study/JOL,"Study Phase",2419,,,-1,-1,,,,1
M20325706DM,g51ooh5uc2,"Mediated JOLs",1,16,2024-03-05T20:11:22+00:00,7.6599860191345,3,versionB_stim.csv,ReadVersion.csv,Read,Read2,LEAGUE,BASEBALL,Study2,F,29,11,Study,User,-,,Study/JOL,"Study Phase",7575,,,-1,-1,,,,1
M20325706DM,g51ooh5uc2,"Mediated JOLs",1,17,2024-03-05T20:11:41+00:00,18.892404079437,3,versionB_stim.csv,ReadVersion.csv,Read,Read2,HEAVY,FEATHER,Study2,M,13,18,Study,User,-,,Study/JOL,"Study Phase",18813,,,-1,-1,,,,1
M20325706DM,g51ooh5uc2,"Mediated JOLs",1,18,2024-03-05T20:11:44+00:00,2.8585019111633,3,versionB_stim.csv,ReadVersion.csv,Read,Read2,DOCUMENT,PAPER,Study2,F,27,42,Study,User,-,,Study/JOL,"Study Phase",2777,,,-1,-1,,,,1
M20325706DM,g51ooh5uc2,"Mediated JOLs",1,19,2024-03-05T20:11:46+00:00,1.7537651062012,3,versionB_stim.csv,ReadVersion.csv,Read,Read2,NURSE,LAWYER,Study2,M,11,14,Study,User,-,,Study/JOL,"Study Phase",1679,,,-1,-1,,,,1
M20325706DM,g51ooh5uc2,"Mediated JOLs",1,20,2024-03-05T20:11:54+00:00,8.7300019264221,3,versionB_stim.csv,ReadVersion.csv,Read,Read2,GRILL,THIGH,Study2,M,17,47,Study,User,-,,Study/JOL,"Study Phase",8643,,,-1,-1,,,,1
M20325706DM,g51ooh5uc2,"Mediated JOLs",1,21,2024-03-05T20:12:04+00:00,9.8481950759888,3,versionB_stim.csv,ReadVersion.csv,Read,Read2,LEASE,TOIL,Study2,U,46,12,Study,User,-,,Study/JOL,"Study Phase",9767,,,-1,-1,,,,1
M20325706DM,g51ooh5uc2,"Mediated JOLs",1,22,2024-03-05T20:12:09+00:00,4.7707159519196,3,versionB_stim.csv,ReadVersion.csv,Read,Read2,BRIDGE,WATER,Study2,F,35,13,Study,User,-,,Study/JOL,"Study Phase",4690,,,-1,-1,,,,1
M20325706DM,g51ooh5uc2,"Mediated JOLs",1,23,2024-03-05T20:12:12+00:00,3.3555240631104,3,versionB_stim.csv,ReadVersion.csv,Read,Read2,REALITY,ISLAND,Study2,M,9,51,Study,User,-,,Study/JOL,"Study Phase",3277,,,-1,-1,,,,1
M20325706DM,g51ooh5uc2,"Mediated JOLs",1,24,2024-03-05T20:12:41+00:00,28.307584047318,3,versionB_stim.csv,ReadVersion.csv,Read,Read2,VALLEY,PEAK,Study2,M,18,19,Study,User,-,,Study/JOL,"Study Phase",28229,,,-1,-1,,,,1
M20325706DM,g51ooh5uc2,"Mediated JOLs",1,25,2024-03-05T20:12:45+00:00,4.31174492836,3,versionB_stim.csv,ReadVersion.csv,Read,Read2,WASP,BUG,Study2,F,34,9,Study,User,-,,Study/JOL,"Study Phase",4228,,,-1,-1,,,,1
M20325706DM,g51ooh5uc2,"Mediated JOLs",1,26,2024-03-05T20:12:47+00:00,1.7028079032898,3,versionB_stim.csv,ReadVersion.csv,Read,Read2,SOAP,DRINK,Study2,M,12,28,Study,User,-,,Study/JOL,"Study Phase",1622,,,-1,-1,,,,1
M20325706DM,g51ooh5uc2,"Mediated JOLs",1,27,2024-03-05T20:12:48+00:00,1.2960481643677,3,versionB_stim.csv,ReadVersion.csv,Read,Read2,FEUD,FIGHT,Study2,F,31,25,Study,User,-,,Study/JOL,"Study Phase",1213,,,-1,-1,,,,1
M20325706DM,g51ooh5uc2,"Mediated JOLs",1,28,2024-03-05T20:12:51+00:00,2.851765871048,3,versionB_stim.csv,ReadVersion.csv,Read,Read2,ARTERY,BRONZE,Study2,U,48,45,Study,User,-,,Study/JOL,"Study Phase",2772,,,-1,-1,,,,1
M20325706DM,g51ooh5uc2,"Mediated JOLs",1,29,2024-03-05T20:12:53+00:00,1.6405251026154,3,versionB_stim.csv,ReadVersion.csv,Read,Read2,INCENSE,SMELL,Study2,F,28,27,Study,User,-,,Study/JOL,"Study Phase",1558,,,-1,-1,,,,1
M20325706DM,g51ooh5uc2,"Mediated JOLs",1,30,2024-03-05T20:12:54+00:00,1.4976279735565,3,versionB_stim.csv,ReadVersion.csv,Read,Read2,CHOP,CUT,Study2,F,22,26,Study,User,-,,Study/JOL,"Study Phase",1430,,,-1,-1,,,,1
M20325706DM,g51ooh5uc2,"Mediated JOLs",1,31,2024-03-05T20:12:55+00:00,1.4160640239716,3,versionB_stim.csv,ReadVersion.csv,Read,Read2,TRAP,CAVE,Study2,M,15,40,Study,User,-,,Study/JOL,"Study Phase",1337,,,-1,-1,,,,1
M20325706DM,g51ooh5uc2,"Mediated JOLs",1,32,2024-03-05T20:12:58+00:00,2.3101279735565,3,versionB_stim.csv,ReadVersion.csv,Read,Read2,EYES,SMELL,Study2,M,10,48,Study,User,-,,Study/JOL,"Study Phase",2231,,,-1,-1,,,,1
M20325706DM,g51ooh5uc2,"Mediated JOLs",1,33,2024-03-05T20:13:00+00:00,1.8670029640198,3,versionB_stim.csv,ReadVersion.csv,Read,Read2,ATTIRE,CLOTHES,Study2,F,24,37,Study,User,-,,Study/JOL,"Study Phase",1793,,,-1,-1,,,,1
M20325706DM,g51ooh5uc2,"Mediated JOLs",1,34,2024-03-05T20:13:02+00:00,1.9892950057983,3,versionB_stim.csv,ReadVersion.csv,Read,Read2,HORNET,STING,Study2,F,30,20,Study,User,-,,Study/JOL,"Study Phase",1906,,,-1,-1,,,,1
M20325706DM,g51ooh5uc2,"Mediated JOLs",1,35,2024-03-05T20:13:04+00:00,2.1384580135345,3,versionB_stim.csv,ReadVersion.csv,Read,Read2,SCHOOL,STOP,Study2,M,7,50,Study,User,-,,Study/JOL,"Study Phase",2066,,,-1,-1,,,,1
M20325706DM,g51ooh5uc2,"Mediated JOLs",1,36,2024-03-05T20:13:06+00:00,2.0438258647919,3,versionB_stim.csv,ReadVersion.csv,Read,Read2,SUMMER,SNOW,Study2,M,6,23,Study,User,-,,Study/JOL,"Study Phase",1968,,,-1,-1,,,,1
M20325706DM,g51ooh5uc2,"Mediated JOLs",1,37,2024-03-05T20:13:09+00:00,3.0013229846954,3,versionB_stim.csv,ReadVersion.csv,Read,Read2,OVEN,BASKET,Study2,M,16,16,Study,User,-,,Study/JOL,"Study Phase",2929,,,-1,-1,,,,1
M20325706DM,g51ooh5uc2,"Mediated JOLs",1,38,2024-03-05T20:13:11+00:00,1.9612271785736,3,versionB_stim.csv,ReadVersion.csv,Read,Read2,BOTH,OUNCE,Study2,U,47,17,Study,User,-,,Study/JOL,"Study Phase",1880,,,-1,-1,,,,1
M20325706DM,g51ooh5uc2,"Mediated JOLs",1,39,2024-03-05T20:13:15+00:00,4.1826729774475,3,versionB_stim.csv,ReadVersion.csv,Read,Read2,RAKE,SEED,Study2,M,14,24,Study,User,-,,Study/JOL,"Study Phase",4103,,,-1,-1,,,,1
M20325706DM,g51ooh5uc2,"Mediated JOLs",1,40,2024-03-05T20:13:17+00:00,2.0213830471039,3,versionB_stim.csv,ReadVersion.csv,Read,Read2,DEATH,BUSINESS,Study2,U,44,44,Study,User,-,,Study/JOL,"Study Phase",1938,,,-1,-1,,,,1
M20325706DM,g51ooh5uc2,"Mediated JOLs",1,41,2024-03-05T20:13:20+00:00,2.7291448116302,3,versionB_stim.csv,ReadVersion.csv,Read,Read2,STRONG,ACCIDENT,Study2,U,39,31,Study,User,-,,Study/JOL,"Study Phase",2655,,,-1,-1,,,,1
M20325706DM,g51ooh5uc2,"Mediated JOLs",1,42,2024-03-05T20:13:22+00:00,2.4917640686035,3,versionB_stim.csv,ReadVersion.csv,Read,Read2,PANTS,COLLAR,Study2,M,8,46,Study,User,-,,Study/JOL,"Study Phase",2411,,,-1,-1,,,,1
M20325706DM,g51ooh5uc2,"Mediated JOLs",1,43,2024-03-05T20:13:27+00:00,4.9307169914246,3,versionB_stim.csv,ReadVersion.csv,Read,Read2,MIRROR,CHILDREN,Study2,U,49,38,Study,User,-,,Study/JOL,"Study Phase",4855,,,-1,-1,,,,1
M20325706DM,g51ooh5uc2,"Mediated JOLs",1,44,2024-03-05T20:13:31+00:00,3.7331659793854,3,versionB_stim.csv,ReadVersion.csv,Read,Read2,DIETARY,SACK,Study2,U,42,32,Study,User,-,,Study/JOL,"Study Phase",3655,,,-1,-1,,,,1
M20325706DM,g51ooh5uc2,"Mediated JOLs",1,45,2024-03-05T20:13:34+00:00,3.5270359516144,3,versionB_stim.csv,ReadVersion.csv,Read,Read2,WINDOW,KNOB,Study2,M,19,33,Study,User,-,,Study/JOL,"Study Phase",3450,,,-1,-1,,,,1
M20325706DM,g51ooh5uc2,"Mediated JOLs",1,46,2024-03-05T20:13:36+00:00,1.2320830821991,3,versionB_stim.csv,ReadVersion.csv,Read,Read2,CACTUS,PLANT,Study2,F,21,15,Study,User,-,,Study/JOL,"Study Phase",1152,,,-1,-1,,,,1
M20325706DM,g51ooh5uc2,"Mediated JOLs",1,47,2024-03-05T20:13:37+00:00,1.7299749851227,3,versionB_stim.csv,ReadVersion.csv,Read,Read2,SICK,HIDE,Study2,U,45,39,Study,User,-,,Study/JOL,"Study Phase",1651,,,-1,-1,,,,1
M20325706DM,g51ooh5uc2,"Mediated JOLs",1,48,2024-03-05T20:13:39+00:00,1.7061841487885,3,versionB_stim.csv,ReadVersion.csv,Read,Read2,BLAZE,FIRE,Study2,F,26,10,Study,User,-,,Study/JOL,"Study Phase",1630,,,-1,-1,,,,1
M20325706DM,g51ooh5uc2,"Mediated JOLs",1,49,2024-03-05T20:13:40+00:00,1.0130047798157,3,versionB_stim.csv,ReadVersion.csv,Read,Read2,RAZOR,MUSCLE,Study2,M,20,30,Study,User,-,,Study/JOL,"Study Phase",933,,,-1,-1,,,,1
M20325706DM,g51ooh5uc2,"Mediated JOLs",1,50,2024-03-05T20:13:49+00:00,8.5771760940552,3,versionB_stim.csv,ReadVersion.csv,Read,Read2,CHERRY,RED,Study2,F,25,7,Study,User,-,,Study/JOL,"Study Phase",8496,,,-1,-1,,,,1
M20325706DM,g51ooh5uc2,"Mediated JOLs",1,51,2024-03-05T20:14:31+00:00,42.191153049469,3,versionB_stim.csv,ReadVersion.csv,Read,Read2,ART,WOLF,Study2,U,38,43,Study,User,-,,Study/JOL,"Study Phase",42108,,,-1,-1,,,,1
M20325706DM,g51ooh5uc2,"Mediated JOLs",1,52,2024-03-05T20:14:33+00:00,2.3673219680786,3,versionB_stim.csv,ReadVersion.csv,Read,Read2,HAPPY,CAR,Study2,U,37,8,Study,User,-,,Study/JOL,"Study Phase",2293,,,-1,-1,,,,1
M20325706DM,g51ooh5uc2,"Mediated JOLs",1,53,2024-03-05T20:14:35+00:00,2.2349410057068,3,versionB_stim.csv,ReadVersion.csv,Read,Read2,PEANUT,BUTTER,BUFFER1,Buffer,58,59,Study,User,-,,Study/JOL,BUFFER2,2157,,,-1,-1,,,,1
M20325706DM,g51ooh5uc2,"Mediated JOLs",1,54,2024-03-05T20:14:36+00:00,1.0500049591064,3,versionB_stim.csv,ReadVersion.csv,Read,Read2,TREES,GREEN,BUFFER1,Buffer,56,58,Study,User,-,,Study/JOL,BUFFER2,977,,,-1,-1,,,,1
M20325706DM,g51ooh5uc2,"Mediated JOLs",1,55,2024-03-05T20:14:38+00:00,1.2297649383545,3,versionB_stim.csv,ReadVersion.csv,Read,Read2,SPACE,JAM,BUFFER1,Buffer,60,60,Study,User,-,,Study/JOL,BUFFER2,1157,,,-1,-1,,,,1
M20325706DM,g51ooh5uc2,"Mediated JOLs",1,56,2024-03-05T20:14:40+00:00,2.7374629974365,3,versionB_stim.csv,ReadVersion.csv,Read,Read2,MOON,SPACE,BUFFER2,Buffer,109,108,Study,User,-,,Study/JOL,BUFFER2,2659,,,-1,-1,,,,1
M20325706DM,g51ooh5uc2,"Mediated JOLs",1,57,2024-03-05T20:14:44+00:00,3.4747631549835,3,versionB_stim.csv,ReadVersion.csv,Read,Read2,SCARE,FRIGHT,BUFFER1,Buffer,59,57,Study,User,-,,Study/JOL,BUFFER2,3393,,,-1,-1,,,,1
M20325706DM,g51ooh5uc2,"Mediated JOLs",1,58,2024-03-05T20:14:46+00:00,2.5825638771057,3,versionB_stim.csv,ReadVersion.csv,Read,Read2,,,,,,0,Instruct,User,-,"You have completed this section. Please press Enter.",Filler_Instruction,Instruct2,2503,,,-1,-1,,,,1
M20325706DM,g51ooh5uc2,"Mediated JOLs",1,59,2024-03-05T20:16:47+00:00,120.15407204628,3,versionB_stim.csv,ReadVersion.csv,Read,Read2,,,,,,0,FreeRecall,120,120,"Please list the 50 US states in alphabetical order. The task will automatically advance to the next screen after two minutes.",,Filler1,120001,"Alabama Boston Calfornia Delaware Florida Georgia Houston Iowa Jacksonville Kansas Long Island Montana North Carolina Oklahoma Pennsylvania Rhode Island South Carolina Tennesse Utah V",0,3050,117836,0,0,,1
M20325706DM,g51ooh5uc2,"Mediated JOLs",1,60,2024-03-05T20:16:58+00:00,11.587019920349,3,versionB_stim.csv,ReadVersion.csv,Read,Read2,,,,,,0,Instruct,-,10,"You will now be presented with the first word from each of the previously studied item pairs. Please type the missing word. If you do not know the word, you may guess or press Enter to skip forward to the next pair.",,Instruct3,11496,,,-1,-1,,,,1
M20325706DM,g51ooh5uc2,"Mediated JOLs",1,61,2024-03-05T20:17:04+00:00,5.8321290016174,3,versionB_stim.csv,ReadVersion.csv,Read,Read2,LEAGUE,BASEBALL,Study2,F,29,11,Test,User,-,,Recall,Recall1,5763,Basellba,75,2418,5529,0,1,,1
M20325706DM,g51ooh5uc2,"Mediated JOLs",1,62,2024-03-05T20:17:08+00:00,3.512638092041,3,versionB_stim.csv,ReadVersion.csv,Read,Read2,KING,VASE,Study2,U,36,21,Test,User,-,,Recall,Recall1,3439,Queen,22.222222222222,1914,3176,0,0,,1
M20325706DM,g51ooh5uc2,"Mediated JOLs",1,63,2024-03-05T20:17:17+00:00,9.8520510196686,3,versionB_stim.csv,ReadVersion.csv,Read,Read2,ART,WOLF,Study2,U,38,43,Test,User,-,,Recall,Recall1,9788,Military,16.666666666667,7765,9244,0,0,,1
M20325706DM,g51ooh5uc2,"Mediated JOLs",1,64,2024-03-05T20:17:21+00:00,3.4858629703522,3,versionB_stim.csv,ReadVersion.csv,Read,Read2,CHISEL,HAMMER,Study2,F,23,41,Test,User,-,,Recall,Recall1,3417,hammer,100,2033,3237,1,1,,1
M20325706DM,g51ooh5uc2,"Mediated JOLs",1,65,2024-03-05T20:17:24+00:00,2.8173780441284,3,versionB_stim.csv,ReadVersion.csv,Read,Read2,FEUD,FIGHT,Study2,F,31,25,Test,User,-,,Recall,Recall1,2753,fight,100,1598,2179,1,1,,1
M20325706DM,g51ooh5uc2,"Mediated JOLs",1,66,2024-03-05T20:17:26+00:00,2.303181886673,3,versionB_stim.csv,ReadVersion.csv,Read,Read2,SUMMER,SNOW,Study2,M,6,23,Test,User,-,,Recall,Recall1,2246,snow,100,1416,1899,1,1,,1
M20325706DM,g51ooh5uc2,"Mediated JOLs",1,67,2024-03-05T20:17:29+00:00,2.954950094223,3,versionB_stim.csv,ReadVersion.csv,Read,Read2,INCENSE,SMELL,Study2,F,28,27,Test,User,-,,Recall,Recall1,2889,smell,100,1415,2290,1,1,,1
M20325706DM,g51ooh5uc2,"Mediated JOLs",1,68,2024-03-05T20:17:34+00:00,4.6726598739624,3,versionB_stim.csv,ReadVersion.csv,Read,Read2,HEAVY,FEATHER,Study2,M,13,18,Test,User,-,,Recall,Recall1,4603,light,16.666666666667,3617,4195,0,0,,1
M20325706DM,g51ooh5uc2,"Mediated JOLs",1,69,2024-03-05T20:17:38+00:00,4.0368461608887,3,versionB_stim.csv,ReadVersion.csv,Read,Read2,GRILL,THIGH,Study2,M,17,47,Test,User,-,,Recall,Recall1,3976,thigh,100,2362,3382,1,1,,1
M20325706DM,g51ooh5uc2,"Mediated JOLs",1,70,2024-03-05T20:17:40+00:00,2.5935790538788,3,versionB_stim.csv,ReadVersion.csv,Read,Read2,STRONG,ACCIDENT,Study2,U,39,31,Test,User,-,,Recall,Recall1,2538,weak,16.666666666667,1678,2252,0,0,,1
M20325706DM,g51ooh5uc2,"Mediated JOLs",1,71,2024-03-05T20:17:43+00:00,2.6491889953613,3,versionB_stim.csv,ReadVersion.csv,Read,Read2,OVEN,BASKET,Study2,M,16,16,Test,User,-,,Recall,Recall1,2586,basket,100,1348,2180,1,1,,1
M20325706DM,g51ooh5uc2,"Mediated JOLs",1,72,2024-03-05T20:17:48+00:00,4.8608889579773,3,versionB_stim.csv,ReadVersion.csv,Read,Read2,WINDOW,KNOB,Study2,M,19,33,Test,User,-,,Recall,Recall1,4786,close,22.222222222222,3910,4567,0,0,,1
M20325706DM,g51ooh5uc2,"Mediated JOLs",1,73,2024-03-05T20:17:53+00:00,5.2474370002747,3,versionB_stim.csv,ReadVersion.csv,Read,Read2,REALITY,ISLAND,Study2,M,9,51,Test,User,-,,Recall,Recall1,5175,fake,20,4417,4857,0,0,,1
M20325706DM,g51ooh5uc2,"Mediated JOLs",1,74,2024-03-05T20:17:57+00:00,3.499253988266,3,versionB_stim.csv,ReadVersion.csv,Read,Read2,SCHOOL,STOP,Study2,M,7,50,Test,User,-,,Recall,Recall1,3426,zone,25,2506,2896,0,0,,1
M20325706DM,g51ooh5uc2,"Mediated JOLs",1,75,2024-03-05T20:18:03+00:00,6.5568590164185,3,versionB_stim.csv,ReadVersion.csv,Read,Read2,BRIDGE,WATER,Study2,F,35,13,Test,User,-,,Recall,Recall1,6486,road,22.222222222222,5811,6272,0,0,,1
M20325706DM,g51ooh5uc2,"Mediated JOLs",1,76,2024-03-05T20:18:08+00:00,5.1684398651123,3,versionB_stim.csv,ReadVersion.csv,Read,Read2,DEATH,BUSINESS,Study2,U,44,44,Test,User,-,,Recall,Recall1,5104,live,33.333333333333,2324,4886,0,0,,1
M20325706DM,g51ooh5uc2,"Mediated JOLs",1,77,2024-03-05T20:18:11+00:00,2.570338010788,3,versionB_stim.csv,ReadVersion.csv,Read,Read2,ATTIRE,CLOTHES,Study2,F,24,37,Test,User,-,,Recall,Recall1,2507,clothes,100,1402,2291,1,1,,1
M20325706DM,g51ooh5uc2,"Mediated JOLs",1,78,2024-03-05T20:18:14+00:00,3.0319139957428,3,versionB_stim.csv,ReadVersion.csv,Read,Read2,DIETARY,SACK,Study2,U,42,32,Test,User,-,,Recall,Recall1,2953,diet,0,2193,2624,0,0,,1
M20325706DM,g51ooh5uc2,"Mediated JOLs",1,79,2024-03-05T20:18:19+00:00,4.8487811088562,3,versionB_stim.csv,ReadVersion.csv,Read,Read2,PUSH,CLUTTER,Study2,U,41,34,Test,User,-,,Recall,Recall1,4780,clutter,100,3011,4506,1,1,,1
M20325706DM,g51ooh5uc2,"Mediated JOLs",1,80,2024-03-05T20:18:22+00:00,3.1608378887177,3,versionB_stim.csv,ReadVersion.csv,Read,Read2,BENCH,HORN,Study2,U,43,35,Test,User,-,,Recall,Recall1,3104,sit,0,2527,2922,0,0,,1
M20325706DM,g51ooh5uc2,"Mediated JOLs",1,81,2024-03-05T20:18:25+00:00,2.8935580253601,3,versionB_stim.csv,ReadVersion.csv,Read,Read2,HORNET,STING,Study2,F,30,20,Test,User,-,,Recall,Recall1,2834,sting,100,1585,2315,1,1,,1
M20325706DM,g51ooh5uc2,"Mediated JOLs",1,82,2024-03-05T20:18:27+00:00,1.9485421180725,3,versionB_stim.csv,ReadVersion.csv,Read,Read2,BLAZE,FIRE,Study2,F,26,10,Test,User,-,,Recall,Recall1,1879,fire,100,1140,1657,1,1,,1
M20325706DM,g51ooh5uc2,"Mediated JOLs",1,83,2024-03-05T20:18:30+00:00,2.9076030254364,3,versionB_stim.csv,ReadVersion.csv,Read,Read2,RAZOR,MUSCLE,Study2,M,20,30,Test,User,-,,Recall,Recall1,2844,sharp,18.181818181818,1665,2268,0,0,,1
M20325706DM,g51ooh5uc2,"Mediated JOLs",1,84,2024-03-05T20:18:37+00:00,6.9314467906952,3,versionB_stim.csv,ReadVersion.csv,Read,Read2,SUGAR,RIDDLE,Study2,U,40,22,Test,User,-,,Recall,Recall1,6870,salt,20,2323,6667,0,0,,1
M20325706DM,g51ooh5uc2,"Mediated JOLs",1,85,2024-03-05T20:18:43+00:00,6.3539261817932,3,versionB_stim.csv,ReadVersion.csv,Read,Read2,ARTERY,BRONZE,Study2,U,48,45,Test,User,-,,Recall,Recall1,6262,bronze,100,3298,5831,1,1,,1
M20325706DM,g51ooh5uc2,"Mediated JOLs",1,86,2024-03-05T20:18:58+00:00,14.783753871918,3,versionB_stim.csv,ReadVersion.csv,Read,Read2,TRAP,CAVE,Study2,M,15,40,Test,User,-,,Recall,Recall1,14720,release,18.181818181818,12995,14558,0,0,,1
M20325706DM,g51ooh5uc2,"Mediated JOLs",1,87,2024-03-05T20:19:14+00:00,15.938341140747,3,versionB_stim.csv,ReadVersion.csv,Read,Read2,SICK,HIDE,Study2,U,45,39,Test,User,-,,Recall,Recall1,15851,fever,22.222222222222,14190,14965,0,0,,1
M20325706DM,g51ooh5uc2,"Mediated JOLs",1,88,2024-03-05T20:19:19+00:00,5.1361889839172,3,versionB_stim.csv,ReadVersion.csv,Read,Read2,EYES,SMELL,Study2,M,10,48,Test,User,-,,Recall,Recall1,5064,smell,100,2904,3564,1,1,,1
M20325706DM,g51ooh5uc2,"Mediated JOLs",1,89,2024-03-05T20:19:21+00:00,2.3620998859406,3,versionB_stim.csv,ReadVersion.csv,Read,Read2,VALLEY,PEAK,Study2,M,18,19,Test,User,-,,Recall,Recall1,2059,peak,100,1366,1779,1,1,,1
M20325706DM,g51ooh5uc2,"Mediated JOLs",1,90,2024-03-05T20:19:23+00:00,1.9055080413818,3,versionB_stim.csv,ReadVersion.csv,Read,Read2,CHERRY,RED,Study2,F,25,7,Test,User,-,,Recall,Recall1,1833,red,100,1110,1562,1,1,,1
M20325706DM,g51ooh5uc2,"Mediated JOLs",1,91,2024-03-05T20:19:27+00:00,3.5735039710999,3,versionB_stim.csv,ReadVersion.csv,Read,Read2,PANTS,COLLAR,Study2,M,8,46,Test,User,-,,Recall,Recall1,3517,shirt,18.181818181818,2549,3214,0,0,,1
M20325706DM,g51ooh5uc2,"Mediated JOLs",1,92,2024-03-05T20:19:31+00:00,4.2776560783386,3,versionB_stim.csv,ReadVersion.csv,Read,Read2,NURSE,LAWYER,Study2,M,11,14,Test,User,-,,Recall,Recall1,4211,doctor,16.666666666667,2758,3607,0,0,,1
M20325706DM,g51ooh5uc2,"Mediated JOLs",1,93,2024-03-05T20:19:32+00:00,1.5701720714569,3,versionB_stim.csv,ReadVersion.csv,Read,Read2,RAKE,SEED,Study2,M,14,24,Test,User,-,,Recall,Recall1,1501,,0,-1,-1,0,0,,1
M20325706DM,g51ooh5uc2,"Mediated JOLs",1,94,2024-03-05T20:19:36+00:00,3.3506247997284,3,versionB_stim.csv,ReadVersion.csv,Read,Read2,BOTH,OUNCE,Study2,U,47,17,Test,User,-,,Recall,Recall1,3278,ounce,100,2105,2911,1,1,,1
M20325706DM,g51ooh5uc2,"Mediated JOLs",1,95,2024-03-05T20:19:39+00:00,2.7357811927795,3,versionB_stim.csv,ReadVersion.csv,Read,Read2,CACTUS,PLANT,Study2,F,21,15,Test,User,-,,Recall,Recall1,2670,plant,100,1821,2442,1,1,,1
M20325706DM,g51ooh5uc2,"Mediated JOLs",1,96,2024-03-05T20:19:41+00:00,2.6816430091858,3,versionB_stim.csv,ReadVersion.csv,Read,Read2,MIRROR,CHILDREN,Study2,U,49,38,Test,User,-,,Recall,Recall1,2608,,0,-1,-1,0,0,,1
M20325706DM,g51ooh5uc2,"Mediated JOLs",1,97,2024-03-05T20:19:43+00:00,2.1148288249969,3,versionB_stim.csv,ReadVersion.csv,Read,Read2,CHOP,CUT,Study2,F,22,26,Test,User,-,,Recall,Recall1,2062,cut,100,1445,1769,1,1,,1
M20325706DM,g51ooh5uc2,"Mediated JOLs",1,98,2024-03-05T20:20:09+00:00,25.253920078278,3,versionB_stim.csv,ReadVersion.csv,Read,Read2,CASH,LEG,Study2,U,50,36,Test,User,-,,Recall,Recall1,25172,flow,28.571428571429,23047,24124,0,0,,1
M20325706DM,g51ooh5uc2,"Mediated JOLs",1,99,2024-03-05T20:20:11+00:00,2.2224678993225,3,versionB_stim.csv,ReadVersion.csv,Read,Read2,CHILL,COLD,Study2,F,32,49,Test,User,-,,Recall,Recall1,2159,cold,100,1381,1986,1,1,,1
M20325706DM,g51ooh5uc2,"Mediated JOLs",1,100,2024-03-05T20:20:15+00:00,4.5573019981384,3,versionB_stim.csv,ReadVersion.csv,Read,Read2,SOAP,DRINK,Study2,M,12,28,Test,User,-,,Recall,Recall1,4489,clean,20,2368,2909,0,0,,1
M20325706DM,g51ooh5uc2,"Mediated JOLs",1,101,2024-03-05T20:20:18+00:00,2.5432221889496,3,versionB_stim.csv,ReadVersion.csv,Read,Read2,DOCUMENT,PAPER,Study2,F,27,42,Test,User,-,,Recall,Recall1,2472,paper,100,1737,2195,1,1,,1
M20325706DM,g51ooh5uc2,"Mediated JOLs",1,102,2024-03-05T20:20:21+00:00,3.2597029209137,3,versionB_stim.csv,ReadVersion.csv,Read,Read2,WASP,BUG,Study2,F,34,9,Test,User,-,,Recall,Recall1,3198,bug,100,2742,3006,1,1,,1
M20325706DM,g51ooh5uc2,"Mediated JOLs",1,103,2024-03-05T20:20:28+00:00,7.1031949520111,3,versionB_stim.csv,ReadVersion.csv,Read,Read2,HERD,COW,Study2,F,33,29,Test,User,-,,Recall,Recall1,7037,cow,100,2728,6831,1,1,,1
M20325706DM,g51ooh5uc2,"Mediated JOLs",1,104,2024-03-05T20:20:32+00:00,3.5840859413147,3,versionB_stim.csv,ReadVersion.csv,Read,Read2,LEASE,TOIL,Study2,U,46,12,Test,User,-,,Recall,Recall1,3512,,0,-1,-1,0,0,,1
M20325706DM,g51ooh5uc2,"Mediated JOLs",1,105,2024-03-05T20:20:36+00:00,4.2468991279602,3,versionB_stim.csv,ReadVersion.csv,Read,Read2,HAPPY,CAR,Study2,U,37,8,Test,User,-,,Recall,Recall1,4176,smile,0,2750,3348,0,0,,1
M20325706DM,g51ooh5uc2,"Mediated JOLs",1,106,2024-03-05T20:20:48+00:00,12.004539012909,3,versionB_stim.csv,ReadVersion.csv,Read,Read2,,,,,,0,Instruct,-,10,"You will now be presented with a new set of word pairs. Please study each pair. Remember that your memory will be tested! When finished, press Enter to move to the next pair.",Initial_Instruct,Instruct4,11924,,,-1,-1,,,,1
M20325706DM,g51ooh5uc2,"Mediated JOLs",1,107,2024-03-05T20:20:50+00:00,1.7127530574799,3,versionB_stim.csv,ReadVersion.csv,Read,Read2,,,,,,0,Instruct,User,-,"Press Enter when you are readty to begin",,Instruct11,1647,,,-1,-1,,,,1
M20325706DM,g51ooh5uc2,"Mediated JOLs",1,108,2024-03-05T20:21:01+00:00,11.361709833145,3,versionB_stim.csv,ReadVersion.csv,Read,Read2,PITCHER,CATCHER,BUFFER1,Buffer,57,61,Study,User,-,,Study/JOL,BUFFER2,11283,,,-1,-1,,,,1
M20325706DM,g51ooh5uc2,"Mediated JOLs",1,109,2024-03-05T20:21:05+00:00,3.996246099472,3,versionB_stim.csv,ReadVersion.csv,Read,Read2,ICE,FROZEN,BUFFER4,Buffer,54,54,Study,User,-,,Study/JOL,BUFFER2,3921,,,-1,-1,,,,1
M20325706DM,g51ooh5uc2,"Mediated JOLs",1,110,2024-03-05T20:21:17+00:00,12.036205053329,3,versionB_stim.csv,ReadVersion.csv,Read,Read2,CAMP,ADVENTURE,BUFFER4,Buffer,55,56,Study,User,-,,Study/JOL,BUFFER2,11949,,,-1,-1,,,,1
M20325706DM,g51ooh5uc2,"Mediated JOLs",1,111,2024-03-05T20:21:22+00:00,4.9760618209839,3,versionB_stim.csv,ReadVersion.csv,Read,Read2,NOODLE,STRING,BUFFER4,Buffer,52,52,Study,User,-,,Study/JOL,BUFFER2,4899,,,-1,-1,,,,1
M20325706DM,g51ooh5uc2,"Mediated JOLs",1,112,2024-03-05T20:21:25+00:00,2.9379630088806,3,versionB_stim.csv,ReadVersion.csv,Read,Read2,GEESE,GOOSE,BUFFER2,Buffer,106,109,Study,User,-,,Study/JOL,BUFFER2,2863,,,-1,-1,,,,1
M20325706DM,g51ooh5uc2,"Mediated JOLs",1,113,2024-03-05T20:21:56+00:00,31.263300180435,3,versionB_stim.csv,ReadVersion.csv,Read,Read2,SIGN,TICK,Study1,U,102,101,Study,User,-,,Study/JOL,"Study Phase2",31165,,,-1,-1,,,,1
M20325706DM,g51ooh5uc2,"Mediated JOLs",1,114,2024-03-05T20:21:59+00:00,2.4016017913818,3,versionB_stim.csv,ReadVersion.csv,Read,Read2,WAR,QUIET,Study1,M,63,73,Study,User,-,,Study/JOL,"Study Phase2",2318,,,-1,-1,,,,1
M20325706DM,g51ooh5uc2,"Mediated JOLs",1,115,2024-03-05T20:22:02+00:00,3.2110900878906,3,versionB_stim.csv,ReadVersion.csv,Read,Read2,MIRROR,MAROON,Study1,U,91,94,Study,User,-,,Study/JOL,"Study Phase2",3128,,,-1,-1,,,,1
M20325706DM,g51ooh5uc2,"Mediated JOLs",1,116,2024-03-05T20:22:04+00:00,2.3957059383392,3,versionB_stim.csv,ReadVersion.csv,Read,Read2,TEMPERATURE,MORNING,Study1,U,103,72,Study,User,-,,Study/JOL,"Study Phase2",2317,,,-1,-1,,,,1
M20325706DM,g51ooh5uc2,"Mediated JOLs",1,117,2024-03-05T20:23:10+00:00,65.632831096649,3,versionB_stim.csv,ReadVersion.csv,Read,Read2,STRETCH,CLOTH,Study1,U,92,86,Study,User,-,,Study/JOL,"Study Phase2",65557,,,-1,-1,,,,1
M20325706DM,g51ooh5uc2,"Mediated JOLs",1,118,2024-03-05T20:23:19+00:00,9.2835519313812,3,versionB_stim.csv,ReadVersion.csv,Read,Read2,MEAT,KEYS,Study1,U,96,77,Study,User,-,,Study/JOL,"Study Phase2",9201,,,-1,-1,,,,1
M20325706DM,g51ooh5uc2,"Mediated JOLs",1,119,2024-03-05T20:23:29+00:00,9.7425589561462,3,versionB_stim.csv,ReadVersion.csv,Read,Read2,ROUGH,SILK,Study1,M,65,92,Study,User,-,,Study/JOL,"Study Phase2",9664,,,-1,-1,,,,1
M20325706DM,g51ooh5uc2,"Mediated JOLs",1,120,2024-03-05T20:23:33+00:00,3.867073059082,3,versionB_stim.csv,ReadVersion.csv,Read,Read2,WORD,SENTENCE,Study1,F,82,67,Study,User,-,,Study/JOL,"Study Phase2",3799,,,-1,-1,,,,1
M20325706DM,g51ooh5uc2,"Mediated JOLs",1,121,2024-03-05T20:23:39+00:00,6.0677740573883,3,versionB_stim.csv,ReadVersion.csv,Read,Read2,FUZZY,BANG,Study1,U,105,79,Study,User,-,,Study/JOL,"Study Phase2",5992,,,-1,-1,,,,1
M20325706DM,g51ooh5uc2,"Mediated JOLs",1,122,2024-03-05T20:23:42+00:00,2.725919008255,3,versionB_stim.csv,ReadVersion.csv,Read,Read2,BIRTHDAY,PIE,Study1,M,64,69,Study,User,-,,Study/JOL,"Study Phase2",2644,,,-1,-1,,,,1
M20325706DM,g51ooh5uc2,"Mediated JOLs",1,123,2024-03-05T20:24:02+00:00,19.892763853073,3,versionB_stim.csv,ReadVersion.csv,Read,Read2,CRACKLE,ELECTION,Study1,U,94,78,Study,User,-,,Study/JOL,"Study Phase2",19805,,,-1,-1,,,,1
M20325706DM,g51ooh5uc2,"Mediated JOLs",1,124,2024-03-05T20:24:09+00:00,7.3392641544342,3,versionB_stim.csv,ReadVersion.csv,Read,Read2,MAZE,PHONE,Study1,U,97,64,Study,User,-,,Study/JOL,"Study Phase2",7264,,,-1,-1,,,,1
M20325706DM,g51ooh5uc2,"Mediated JOLs",1,125,2024-03-05T20:24:11+00:00,1.9881889820099,3,versionB_stim.csv,ReadVersion.csv,Read,Read2,BAT,BOUNCE,Study1,M,67,85,Study,User,-,,Study/JOL,"Study Phase2",1909,,,-1,-1,,,,1
M20325706DM,g51ooh5uc2,"Mediated JOLs",1,126,2024-03-05T20:24:14+00:00,3.2078568935394,3,versionB_stim.csv,ReadVersion.csv,Read,Read2,TOOTH,HAIR,Study1,M,74,87,Study,User,-,,Study/JOL,"Study Phase2",3132,,,-1,-1,,,,1
M20325706DM,g51ooh5uc2,"Mediated JOLs",1,127,2024-03-05T20:24:17+00:00,2.8258321285248,3,versionB_stim.csv,ReadVersion.csv,Read,Read2,ORCHID,FLOWER,Study1,F,89,70,Study,User,-,,Study/JOL,"Study Phase2",2742,,,-1,-1,,,,1
M20325706DM,g51ooh5uc2,"Mediated JOLs",1,128,2024-03-05T20:24:19+00:00,1.844712972641,3,versionB_stim.csv,ReadVersion.csv,Read,Read2,NAP,SLEEP,Study1,F,84,105,Study,User,-,,Study/JOL,"Study Phase2",1763,,,-1,-1,,,,1
M20325706DM,g51ooh5uc2,"Mediated JOLs",1,129,2024-03-05T20:24:22+00:00,2.994215965271,3,versionB_stim.csv,ReadVersion.csv,Read,Read2,CEILING,CARPET,Study1,M,70,89,Study,User,-,,Study/JOL,"Study Phase2",2915,,,-1,-1,,,,1
M20325706DM,g51ooh5uc2,"Mediated JOLs",1,130,2024-03-05T20:24:24+00:00,2.0013959407806,3,versionB_stim.csv,ReadVersion.csv,Read,Read2,SCALP,HEAD,Study1,F,78,106,Study,User,-,,Study/JOL,"Study Phase2",1925,,,-1,-1,,,,1
M20325706DM,g51ooh5uc2,"Mediated JOLs",1,131,2024-03-05T20:24:26+00:00,1.7832520008087,3,versionB_stim.csv,ReadVersion.csv,Read,Read2,TUNA,FISH,Study1,F,90,104,Study,User,-,,Study/JOL,"Study Phase2",1708,,,-1,-1,,,,1
M20325706DM,g51ooh5uc2,"Mediated JOLs",1,132,2024-03-05T20:24:28+00:00,2.0566601753235,3,versionB_stim.csv,ReadVersion.csv,Read,Read2,WAGE,MONEY,Study1,F,77,65,Study,User,-,,Study/JOL,"Study Phase2",1988,,,-1,-1,,,,1
M20325706DM,g51ooh5uc2,"Mediated JOLs",1,133,2024-03-05T20:24:31+00:00,3.5579998493195,3,versionB_stim.csv,ReadVersion.csv,Read,Read2,ROOT,PLANT,Study1,F,80,83,Study,User,-,,Study/JOL,"Study Phase2",3481,,,-1,-1,,,,1
M20325706DM,g51ooh5uc2,"Mediated JOLs",1,134,2024-03-05T20:24:34+00:00,2.5230340957642,3,versionB_stim.csv,ReadVersion.csv,Read,Read2,CRY,BOTTLE,Study1,M,71,75,Study,User,-,,Study/JOL,"Study Phase2",2446,,,-1,-1,,,,1
M20325706DM,g51ooh5uc2,"Mediated JOLs",1,135,2024-03-05T20:24:36+00:00,2.1722149848938,3,versionB_stim.csv,ReadVersion.csv,Read,Read2,SHELL,SHAKE,Study1,U,98,71,Study,User,-,,Study/JOL,"Study Phase2",2107,,,-1,-1,,,,1
M20325706DM,g51ooh5uc2,"Mediated JOLs",1,136,2024-03-05T20:24:41+00:00,5.0938580036163,3,versionB_stim.csv,ReadVersion.csv,Read,Read2,SOON,BELT,Study1,U,101,84,Study,User,-,,Study/JOL,"Study Phase2",5015,,,-1,-1,,,,1
M20325706DM,g51ooh5uc2,"Mediated JOLs",1,137,2024-03-05T20:24:47+00:00,6.1238670349121,3,versionB_stim.csv,ReadVersion.csv,Read,Read2,HORSE,WHEEL,Study1,M,69,81,Study,User,-,,Study/JOL,"Study Phase2",6043,,,-1,-1,,,,1
M20325706DM,g51ooh5uc2,"Mediated JOLs",1,138,2024-03-05T20:24:50+00:00,3.1185579299927,3,versionB_stim.csv,ReadVersion.csv,Read,Read2,DAY,DARK,Study1,M,73,80,Study,User,-,,Study/JOL,"Study Phase2",3038,,,-1,-1,,,,1
M20325706DM,g51ooh5uc2,"Mediated JOLs",1,139,2024-03-05T20:24:53+00:00,3.1717081069946,3,versionB_stim.csv,ReadVersion.csv,Read,Read2,SWAN,BIRD,Study1,F,81,90,Study,User,-,,Study/JOL,"Study Phase2",3085,,,-1,-1,,,,1
M20325706DM,g51ooh5uc2,"Mediated JOLs",1,140,2024-03-05T20:25:04+00:00,10.111417770386,3,versionB_stim.csv,ReadVersion.csv,Read,Read2,KEYS,ROD,Study1,U,100,82,Study,User,-,,Study/JOL,"Study Phase2",10003,,,-1,-1,,,,1
M20325706DM,g51ooh5uc2,"Mediated JOLs",1,141,2024-03-05T20:25:05+00:00,1.2007131576538,3,versionB_stim.csv,ReadVersion.csv,Read,Read2,MULE,DONKEY,Study1,F,85,63,Study,User,-,,Study/JOL,"Study Phase2",1122,,,-1,-1,,,,1
M20325706DM,g51ooh5uc2,"Mediated JOLs",1,142,2024-03-05T20:25:11+00:00,6.4455718994141,3,versionB_stim.csv,ReadVersion.csv,Read,Read2,CREDIT,CARD,Study1,F,88,98,Study,User,-,,Study/JOL,"Study Phase2",6362,,,-1,-1,,,,1
M20325706DM,g51ooh5uc2,"Mediated JOLs",1,143,2024-03-05T20:25:17+00:00,5.7774260044098,3,versionB_stim.csv,ReadVersion.csv,Read,Read2,AFFECTION,LOVE,Study1,F,86,66,Study,User,-,,Study/JOL,"Study Phase2",5703,,,-1,-1,,,,1
M20325706DM,g51ooh5uc2,"Mediated JOLs",1,144,2024-03-05T20:25:28+00:00,10.990411043167,3,versionB_stim.csv,ReadVersion.csv,Read,Read2,LITTER,TRASH,Study1,F,76,97,Study,User,-,,Study/JOL,"Study Phase2",10912,,,-1,-1,,,,1
M20325706DM,g51ooh5uc2,"Mediated JOLs",1,145,2024-03-05T20:25:33+00:00,4.8747220039368,3,versionB_stim.csv,ReadVersion.csv,Read,Read2,CAKE,HAND,Study1,U,104,76,Study,User,-,,Study/JOL,"Study Phase2",4795,,,-1,-1,,,,1
M20325706DM,g51ooh5uc2,"Mediated JOLs",1,146,2024-03-05T20:26:58+00:00,84.690113067627,3,versionB_stim.csv,ReadVersion.csv,Read,Read2,HARD,COTTON,Study1,M,75,93,Study,User,-,,Study/JOL,"Study Phase2",84539,,,-1,-1,,,,1
M20325706DM,g51ooh5uc2,"Mediated JOLs",1,147,2024-03-05T20:26:59+00:00,1.7767629623413,3,versionB_stim.csv,ReadVersion.csv,Read,Read2,SIP,DRINK,Study1,F,87,74,Study,User,-,,Study/JOL,"Study Phase2",1683,,,-1,-1,,,,1
M20325706DM,g51ooh5uc2,"Mediated JOLs",1,148,2024-03-05T20:27:01+00:00,1.7956480979919,3,versionB_stim.csv,ReadVersion.csv,Read,Read2,WEDDING,FINGER,Study1,M,72,62,Study,User,-,,Study/JOL,"Study Phase2",1718,,,-1,-1,,,,1
M20325706DM,g51ooh5uc2,"Mediated JOLs",1,149,2024-03-05T20:27:05+00:00,3.7504878044128,3,versionB_stim.csv,ReadVersion.csv,Read,Read2,VEHICLE,CHARM,Study1,U,95,103,Study,User,-,,Study/JOL,"Study Phase2",3675,,,-1,-1,,,,1
M20325706DM,g51ooh5uc2,"Mediated JOLs",1,150,2024-03-05T20:27:06+00:00,1.2694301605225,3,versionB_stim.csv,ReadVersion.csv,Read,Read2,LISTEN,FICTION,Study1,U,99,95,Study,User,-,,Study/JOL,"Study Phase2",1189,,,-1,-1,,,,1
M20325706DM,g51ooh5uc2,"Mediated JOLs",1,151,2024-03-05T20:27:08+00:00,2.0847978591919,3,versionB_stim.csv,ReadVersion.csv,Read,Read2,GIVE,STEAK,Study1,U,93,96,Study,User,-,,Study/JOL,"Study Phase2",2011,,,-1,-1,,,,1
M20325706DM,g51ooh5uc2,"Mediated JOLs",1,152,2024-03-05T20:27:10+00:00,1.9757399559021,3,versionB_stim.csv,ReadVersion.csv,Read,Read2,BEACH,BOX,Study1,M,62,102,Study,User,-,,Study/JOL,"Study Phase2",1900,,,-1,-1,,,,1
M20325706DM,g51ooh5uc2,"Mediated JOLs",1,153,2024-03-05T20:27:12+00:00,1.4448699951172,3,versionB_stim.csv,ReadVersion.csv,Read,Read2,HYGIENE,CLEAN,Study1,F,83,99,Study,User,-,,Study/JOL,"Study Phase2",1363,,,-1,-1,,,,1
M20325706DM,g51ooh5uc2,"Mediated JOLs",1,154,2024-03-05T20:27:13+00:00,1.8256101608276,3,versionB_stim.csv,ReadVersion.csv,Read,Read2,MULE,DONKEY,Study1,F,79,100,Study,User,-,,Study/JOL,"Study Phase2",1768,,,-1,-1,,,,1
M20325706DM,g51ooh5uc2,"Mediated JOLs",1,155,2024-03-05T20:27:15+00:00,1.7755260467529,3,versionB_stim.csv,ReadVersion.csv,Read,Read2,LION,STRIPES,Study1,M,61,88,Study,User,-,,Study/JOL,"Study Phase2",1704,,,-1,-1,,,,1
M20325706DM,g51ooh5uc2,"Mediated JOLs",1,156,2024-03-05T20:27:18+00:00,2.427610874176,3,versionB_stim.csv,ReadVersion.csv,Read,Read2,CIRCLE,DANCE,Study1,M,68,91,Study,User,-,,Study/JOL,"Study Phase2",2349,,,-1,-1,,,,1
M20325706DM,g51ooh5uc2,"Mediated JOLs",1,157,2024-03-05T20:27:19+00:00,1.4617819786072,3,versionB_stim.csv,ReadVersion.csv,Read,Read2,TREE,SYRUP,Study1,M,66,68,Study,User,-,,Study/JOL,"Study Phase2",1388,,,-1,-1,,,,1
M20325706DM,g51ooh5uc2,"Mediated JOLs",1,158,2024-03-05T20:27:23+00:00,3.840537071228,3,versionB_stim.csv,ReadVersion.csv,Read,Read2,SHERRIF,POLICE,BUFFER2,Buffer,107,107,Study,User,-,,Study/JOL,BUFFER2,3757,,,-1,-1,,,,1
M20325706DM,g51ooh5uc2,"Mediated JOLs",1,159,2024-03-05T20:27:28+00:00,4.7565319538116,3,versionB_stim.csv,ReadVersion.csv,Read,Read2,THING,STUFF,BUFFER2,Buffer,110,111,Study,User,-,,Study/JOL,BUFFER2,4665,,,-1,-1,,,,0.826
M20325706DM,g51ooh5uc2,"Mediated JOLs",1,160,2024-03-05T20:27:29+00:00,1.7682731151581,3,versionB_stim.csv,ReadVersion.csv,Read,Read2,SHRIMP,FISH,BUFFER4,Buffer,53,55,Study,User,-,,Study/JOL,BUFFER2,1699,,,-1,-1,,,,1
M20325706DM,g51ooh5uc2,"Mediated JOLs",1,161,2024-03-05T20:27:35+00:00,5.6204199790955,3,versionB_stim.csv,ReadVersion.csv,Read,Read2,MALT,CHOCOLATE,BUFFER2,Buffer,108,110,Study,User,-,,Study/JOL,BUFFER2,5539,,,-1,-1,,,,0.857
M20325706DM,g51ooh5uc2,"Mediated JOLs",1,162,2024-03-05T20:27:46+00:00,11.121937036514,3,versionB_stim.csv,ReadVersion.csv,Read,Read2,CARROT,POTATO,BUFFER4,Buffer,51,53,Study,User,-,,Study/JOL,BUFFER2,11045,,,-1,-1,,,,1
M20325706DM,g51ooh5uc2,"Mediated JOLs",1,163,2024-03-05T20:27:48+00:00,1.9412758350372,3,versionB_stim.csv,ReadVersion.csv,Read,Read2,,,,,,0,Instruct,User,-,"You have completed this section. Please press Enter.",Filler_Instruction,Instruct2,1866,,,-1,-1,,,,1
M20325706DM,g51ooh5uc2,"Mediated JOLs",1,164,2024-03-05T20:29:48+00:00,120.15681409836,3,versionB_stim.csv,ReadVersion.csv,Read,Read2,,,,,,0,FreeRecall,120,120,"Please list the 50 US states in alphabetical order. The task will automatically advance to the next screen after two minutes.",,Filler1,120001,"Albama Boston Calfornia Delaware Florida Georgia Houston Iowa Jacksonville Kansas Long island Montana New jersey Oklahoma Pennsylvania rhode island South Carolina Tennesse Utah Virginia Washington Yukon Z",0,3274,112562,0,0,,1
M20325706DM,g51ooh5uc2,"Mediated JOLs",1,165,2024-03-05T20:30:00+00:00,11.794304847717,3,versionB_stim.csv,ReadVersion.csv,Read,Read2,,,,,,0,Instruct,-,10,"You will now be presented with the first word from each of the previously studied item pairs. Please type the missing word. If you do not know the word, you may guess or press Enter to skip forward to the next pair.",,Instruct3,11714,,,-1,-1,,,,1
M20325706DM,g51ooh5uc2,"Mediated JOLs",1,166,2024-03-05T20:30:21+00:00,20.974011182785,3,versionB_stim.csv,ReadVersion.csv,Read,Read2,ROUGH,SILK,Study1,M,65,92,Test,User,-,,Recall,Recall2,20906,easy,25,19582,20223,0,0,,1
M20325706DM,g51ooh5uc2,"Mediated JOLs",1,167,2024-03-05T20:30:27+00:00,5.6975989341736,3,versionB_stim.csv,ReadVersion.csv,Read,Read2,MAZE,PHONE,Study1,U,97,64,Test,User,-,,Recall,Recall2,5620,hard,22.222222222222,4968,5439,0,0,,1
M20325706DM,g51ooh5uc2,"Mediated JOLs",1,168,2024-03-05T20:30:32+00:00,4.8149089813232,3,versionB_stim.csv,ReadVersion.csv,Read,Read2,LISTEN,FICTION,Study1,U,99,95,Test,User,-,,Recall,Recall2,4745,smell,0,3852,4490,0,0,,1
M20325706DM,g51ooh5uc2,"Mediated JOLs",1,169,2024-03-05T20:30:34+00:00,1.9624400138855,3,versionB_stim.csv,ReadVersion.csv,Read,Read2,SHELL,SHAKE,Study1,U,98,71,Test,User,-,,Recall,Recall2,1906,shake,100,1234,1701,1,1,,1
M20325706DM,g51ooh5uc2,"Mediated JOLs",1,170,2024-03-05T20:30:37+00:00,3.4420680999756,3,versionB_stim.csv,ReadVersion.csv,Read,Read2,KEYS,ROD,Study1,U,100,82,Test,User,-,,Recall,Recall2,3374,door,28.571428571429,2472,2831,0,0,,1
M20325706DM,g51ooh5uc2,"Mediated JOLs",1,171,2024-03-05T20:30:42+00:00,4.8733909130096,3,versionB_stim.csv,ReadVersion.csv,Read,Read2,CRY,BOTTLE,Study1,M,71,75,Test,User,-,,Recall,Recall2,4813,sad,0,2430,3228,0,0,,1
M20325706DM,g51ooh5uc2,"Mediated JOLs",1,172,2024-03-05T20:31:04+00:00,21.891620874405,3,versionB_stim.csv,ReadVersion.csv,Read,Read2,ROOT,PLANT,Study1,F,80,83,Test,User,-,,Recall,Recall2,21820,plant,100,19964,20907,1,1,,1
M20325706DM,g51ooh5uc2,"Mediated JOLs",1,173,2024-03-05T20:31:07+00:00,3.3110392093658,3,versionB_stim.csv,ReadVersion.csv,Read,Read2,SCALP,HEAD,Study1,F,78,106,Test,User,-,,Recall,Recall2,3238,hair,50,2144,2895,0,0,,1
M20325706DM,g51ooh5uc2,"Mediated JOLs",1,174,2024-03-05T20:31:13+00:00,5.6332747936249,3,versionB_stim.csv,ReadVersion.csv,Read,Read2,BIRTHDAY,PIE,Study1,M,64,69,Test,User,-,,Recall,Recall2,5572,candles,20,2991,4555,0,0,,1
M20325706DM,g51ooh5uc2,"Mediated JOLs",1,175,2024-03-05T20:31:20+00:00,7.2616121768951,3,versionB_stim.csv,ReadVersion.csv,Read,Read2,BAT,BOUNCE,Study1,M,67,85,Test,User,-,,Recall,Recall2,7192,ball,20,5967,6674,0,0,,1
M20325706DM,g51ooh5uc2,"Mediated JOLs",1,176,2024-03-05T20:31:32+00:00,12.060796976089,3,versionB_stim.csv,ReadVersion.csv,Read,Read2,STRETCH,CLOTH,Study1,U,92,86,Test,User,-,,Recall,Recall2,11990,muscles,33.333333333333,9199,11208,0,0,,1
M20325706DM,g51ooh5uc2,"Mediated JOLs",1,177,2024-03-05T20:31:36+00:00,4.1460168361664,3,versionB_stim.csv,ReadVersion.csv,Read,Read2,GIVE,STEAK,Study1,U,93,96,Test,User,-,,Recall,Recall2,4073,away,22.222222222222,1124,3514,0,0,,1
M20325706DM,g51ooh5uc2,"Mediated JOLs",1,178,2024-03-05T20:31:40+00:00,3.9616281986237,3,versionB_stim.csv,ReadVersion.csv,Read,Read2,DAY,DARK,Study1,M,73,80,Test,User,-,,Recall,Recall2,3880,month,0,2409,3549,0,0,,1
M20325706DM,g51ooh5uc2,"Mediated JOLs",1,179,2024-03-05T20:31:44+00:00,3.6016519069672,3,versionB_stim.csv,ReadVersion.csv,Read,Read2,MULE,DONKEY,Study1,F,79,100,Test,User,-,,Recall,Recall2,3537,,0,-1,-1,0,0,,1
M20325706DM,g51ooh5uc2,"Mediated JOLs",1,180,2024-03-05T20:31:46+00:00,2.2971620559692,3,versionB_stim.csv,ReadVersion.csv,Read,Read2,TUNA,FISH,Study1,F,90,104,Test,User,-,,Recall,Recall2,2220,fish,100,1400,1788,1,1,,1
M20325706DM,g51ooh5uc2,"Mediated JOLs",1,181,2024-03-05T20:31:49+00:00,3.0741629600525,3,versionB_stim.csv,ReadVersion.csv,Read,Read2,CEILING,CARPET,Study1,M,70,89,Test,User,-,,Recall,Recall2,3008,carpet,100,1159,2715,1,1,,1
M20325706DM,g51ooh5uc2,"Mediated JOLs",1,182,2024-03-05T20:31:52+00:00,3.0755128860474,3,versionB_stim.csv,ReadVersion.csv,Read,Read2,SOON,BELT,Study1,U,101,84,Test,User,-,,Recall,Recall2,3009,later,44.444444444444,1640,2595,0,0,,1
M20325706DM,g51ooh5uc2,"Mediated JOLs",1,183,2024-03-05T20:31:56+00:00,3.5967030525208,3,versionB_stim.csv,ReadVersion.csv,Read,Read2,NAP,SLEEP,Study1,F,84,105,Test,User,-,,Recall,Recall2,3522,wake,22.222222222222,2904,3291,0,0,,1
M20325706DM,g51ooh5uc2,"Mediated JOLs",1,184,2024-03-05T20:32:02+00:00,6.1757140159607,3,versionB_stim.csv,ReadVersion.csv,Read,Read2,LION,STRIPES,Study1,M,61,88,Test,User,-,,Recall,Recall2,6098,roar,18.181818181818,5336,5797,0,0,,1
M20325706DM,g51ooh5uc2,"Mediated JOLs",1,185,2024-03-05T20:32:04+00:00,2.1366679668427,3,versionB_stim.csv,ReadVersion.csv,Read,Read2,HYGIENE,CLEAN,Study1,F,83,99,Test,User,-,,Recall,Recall2,2069,clean,100,1107,1699,1,1,,1
M20325706DM,g51ooh5uc2,"Mediated JOLs",1,186,2024-03-05T20:32:14+00:00,10.031329154968,3,versionB_stim.csv,ReadVersion.csv,Read,Read2,CAKE,HAND,Study1,U,104,76,Test,User,-,,Recall,Recall2,9971,birthday,33.333333333333,8017,9520,0,0,,1
M20325706DM,g51ooh5uc2,"Mediated JOLs",1,187,2024-03-05T20:32:19+00:00,4.996260881424,3,versionB_stim.csv,ReadVersion.csv,Read,Read2,SWAN,BIRD,Study1,F,81,90,Test,User,-,,Recall,Recall2,4929,,0,-1,-1,0,0,,1
M20325706DM,g51ooh5uc2,"Mediated JOLs",1,188,2024-03-05T20:32:23+00:00,3.4344041347504,3,versionB_stim.csv,ReadVersion.csv,Read,Read2,HORSE,WHEEL,Study1,M,69,81,Test,User,-,,Recall,Recall2,3357,mule,22.222222222222,2437,3113,0,0,,1
M20325706DM,g51ooh5uc2,"Mediated JOLs",1,189,2024-03-05T20:32:25+00:00,2.1324977874756,3,versionB_stim.csv,ReadVersion.csv,Read,Read2,AFFECTION,LOVE,Study1,F,86,66,Test,User,-,,Recall,Recall2,2056,love,100,1240,1903,1,1,,1
M20325706DM,g51ooh5uc2,"Mediated JOLs",1,190,2024-03-05T20:32:27+00:00,2.7658200263977,3,versionB_stim.csv,ReadVersion.csv,Read,Read2,MEAT,KEYS,Study1,U,96,77,Test,User,-,,Recall,Recall2,2705,meet,25,1976,2496,0,0,,1
M20325706DM,g51ooh5uc2,"Mediated JOLs",1,191,2024-03-05T20:32:31+00:00,3.4453701972961,3,versionB_stim.csv,ReadVersion.csv,Read,Read2,SIGN,TICK,Study1,U,102,101,Test,User,-,,Recall,Recall2,3374,stop,25,2499,3044,0,0,,1
M20325706DM,g51ooh5uc2,"Mediated JOLs",1,192,2024-03-05T20:32:34+00:00,2.6377007961273,3,versionB_stim.csv,ReadVersion.csv,Read,Read2,CRACKLE,ELECTION,Study1,U,94,78,Test,User,-,,Recall,Recall2,2562,pop,18.181818181818,1927,2238,0,0,,1
M20325706DM,g51ooh5uc2,"Mediated JOLs",1,193,2024-03-05T20:32:36+00:00,2.6698851585388,3,versionB_stim.csv,ReadVersion.csv,Read,Read2,BEACH,BOX,Study1,M,62,102,Test,User,-,,Recall,Recall2,2611,sea,0,1857,2249,0,0,,1
M20325706DM,g51ooh5uc2,"Mediated JOLs",1,194,2024-03-05T20:32:40+00:00,3.3127369880676,3,versionB_stim.csv,ReadVersion.csv,Read,Read2,VEHICLE,CHARM,Study1,U,95,103,Test,User,-,,Recall,Recall2,3237,car,75,1307,3009,0,1,,1
M20325706DM,g51ooh5uc2,"Mediated JOLs",1,195,2024-03-05T20:32:43+00:00,3.8989009857178,3,versionB_stim.csv,ReadVersion.csv,Read,Read2,WAR,QUIET,Study1,M,63,73,Test,User,-,,Recall,Recall2,3844,fight,40,3031,3468,0,0,,1
M20325706DM,g51ooh5uc2,"Mediated JOLs",1,196,2024-03-05T20:32:51+00:00,7.3655090332031,3,versionB_stim.csv,ReadVersion.csv,Read,Read2,CIRCLE,DANCE,Study1,M,68,91,Test,User,-,,Recall,Recall2,7290,dance,100,5033,7020,1,1,,1
M20325706DM,g51ooh5uc2,"Mediated JOLs",1,197,2024-03-05T20:32:54+00:00,3.0564730167389,3,versionB_stim.csv,ReadVersion.csv,Read,Read2,SIP,DRINK,Study1,F,87,74,Test,User,-,,Recall,Recall2,2993,drink,100,1157,2654,1,1,,1
M20325706DM,g51ooh5uc2,"Mediated JOLs",1,198,2024-03-05T20:32:56+00:00,2.3531839847565,3,versionB_stim.csv,ReadVersion.csv,Read,Read2,CREDIT,CARD,Study1,F,88,98,Test,User,-,,Recall,Recall2,2281,card,100,1413,2050,1,1,,1
M20325706DM,g51ooh5uc2,"Mediated JOLs",1,199,2024-03-05T20:32:59+00:00,2.9792158603668,3,versionB_stim.csv,ReadVersion.csv,Read,Read2,ORCHID,FLOWER,Study1,F,89,70,Test,User,-,,Recall,Recall2,2909,flowers,92.307692307692,1221,2639,0,1,,1
M20325706DM,g51ooh5uc2,"Mediated JOLs",1,200,2024-03-05T20:33:04+00:00,4.5712909698486,3,versionB_stim.csv,ReadVersion.csv,Read,Read2,TREE,SYRUP,Study1,M,66,68,Test,User,-,,Recall,Recall2,4507,trunk,40,2009,3454,0,0,,1
M20325706DM,g51ooh5uc2,"Mediated JOLs",1,201,2024-03-05T20:33:49+00:00,45.440775156021,3,versionB_stim.csv,ReadVersion.csv,Read,Read2,WORD,SENTENCE,Study1,F,82,67,Test,User,-,,Recall,Recall2,45362,memory,14.285714285714,43613,45041,0,0,,1
M20325706DM,g51ooh5uc2,"Mediated JOLs",1,202,2024-03-05T20:33:52+00:00,2.8433468341827,3,versionB_stim.csv,ReadVersion.csv,Read,Read2,MULE,DONKEY,Study1,F,85,63,Test,User,-,,Recall,Recall2,2766,,0,-1,-1,0,0,,1
M20325706DM,g51ooh5uc2,"Mediated JOLs",1,203,2024-03-05T20:33:55+00:00,2.5835912227631,3,versionB_stim.csv,ReadVersion.csv,Read,Read2,FUZZY,BANG,Study1,U,105,79,Test,User,-,,Recall,Recall2,2513,hair,25,1669,2265,0,0,,1
M20325706DM,g51ooh5uc2,"Mediated JOLs",1,204,2024-03-05T20:34:00+00:00,5.4462349414825,3,versionB_stim.csv,ReadVersion.csv,Read,Read2,MIRROR,MAROON,Study1,U,91,94,Test,User,-,,Recall,Recall2,5377,,0,-1,-1,0,0,,1
M20325706DM,g51ooh5uc2,"Mediated JOLs",1,205,2024-03-05T20:34:02+00:00,2.299742937088,3,versionB_stim.csv,ReadVersion.csv,Read,Read2,HARD,COTTON,Study1,M,75,93,Test,User,-,,Recall,Recall2,2236,easy,0,1184,1791,0,0,,1
M20325706DM,g51ooh5uc2,"Mediated JOLs",1,206,2024-03-05T20:34:04+00:00,2.0489120483398,3,versionB_stim.csv,ReadVersion.csv,Read,Read2,TOOTH,HAIR,Study1,M,74,87,Test,User,-,,Recall,Recall2,1973,hair,100,1333,1679,1,1,,1
M20325706DM,g51ooh5uc2,"Mediated JOLs",1,207,2024-03-05T20:34:10+00:00,5.8107559680939,3,versionB_stim.csv,ReadVersion.csv,Read,Read2,WEDDING,FINGER,Study1,M,72,62,Test,User,-,,Recall,Recall2,5719,bride,18.181818181818,4786,5483,0,0,,1
M20325706DM,g51ooh5uc2,"Mediated JOLs",1,208,2024-03-05T20:34:15+00:00,4.9522199630737,3,versionB_stim.csv,ReadVersion.csv,Read,Read2,TEMPERATURE,MORNING,Study1,U,103,72,Test,User,-,,Recall,Recall2,4871,warm,18.181818181818,3939,4590,0,0,,1
M20325706DM,g51ooh5uc2,"Mediated JOLs",1,209,2024-03-05T20:34:19+00:00,3.4909081459045,3,versionB_stim.csv,ReadVersion.csv,Read,Read2,LITTER,TRASH,Study1,F,76,97,Test,User,-,,Recall,Recall2,3402,trash,100,1874,2751,1,1,,1
M20325706DM,g51ooh5uc2,"Mediated JOLs",1,210,2024-03-05T20:34:21+00:00,2.1252408027649,3,versionB_stim.csv,ReadVersion.csv,Read,Read2,WAGE,MONEY,Study1,F,77,65,Test,User,-,,Recall,Recall2,2062,money,100,1008,1558,1,1,,1
M20325706DM,g51ooh5uc2,"Mediated JOLs",1,211,2024-03-05T20:34:22+00:00,1.3849391937256,3,versionB_stim.csv,ReadVersion.csv,Read,Read2,,,,,,0,Instruct,User,-,"You have completed this section. Please press Enter.",,Instruct7,1311,,,-1,-1,,,,1
M20325706DM,g51ooh5uc2,"Mediated JOLs",1,212,2024-03-05T20:34:24+00:00,2.0746519565582,3,versionB_stim.csv,ReadVersion.csv,Read,Read2,,,,,,0,Instruct,User,-,"The following screen will ask you a few questions abour your experience today. You must complete these questions to receive credit.",,Instruct8,1993,,,-1,-1,,,,1
