Username,ID,ExperimentName,Session,Trial,Date,TimeDif,"Condition Number","Stimuli File","Order File","Condition Description","Condition Notes",Stimuli*Cue,Stimuli*Answer,Stimuli*Shuffle,"Stimuli*Stimuli Notes",Stimuli*Value,Procedure*Item,"Procedure*Trial Type","Procedure*Max Time","Procedure*Min Time",Procedure*Text,"Procedure*Procedure Notes",Procedure*Shuffle,Response*RT,Response*Response,Response*Accuracy,Response*RTfirst,Response*RTlast,Response*strictAcc,Response*lenientAcc,Response*focus,Response*Focus
M20320723,0f5n1e1fbc,"Mediated JOLs",1,1,2024-04-05T19:51:53+00:00,174.5777258873,3,versionB_stim.csv,ReadVersion.csv,Read,Read2,,,,,,0,Instruct,-,5,"In this section, you will be presented with a series of word pairs. Please study each word pair! Your memory will be tested!",Initial_Instruct,Instruct1,174383,,,-1,-1,,,,0.365
M20320723,0f5n1e1fbc,"Mediated JOLs",1,2,2024-04-05T19:51:54+00:00,1.1194059848785,3,versionB_stim.csv,ReadVersion.csv,Read,Read2,,,,,,0,Instruct,User,-,"You will now begin. Press Enter when you are ready to begin.",,Instruct16,948,,,-1,-1,,,,1
M20320723,0f5n1e1fbc,"Mediated JOLs",1,3,2024-04-05T19:52:22+00:00,28.33353304863,3,versionB_stim.csv,ReadVersion.csv,Read,Read2,SPRING,MARCH,BUFFER3,Buffer,4,4,Study,User,-,,Study/JOL,BUFFER,28180,,,-1,-1,,,,1
M20320723,0f5n1e1fbc,"Mediated JOLs",1,4,2024-04-05T19:52:27+00:00,4.4186198711395,3,versionB_stim.csv,ReadVersion.csv,Read,Read2,OCTOBER,SPOOKY,BUFFER3,Buffer,5,6,Study,User,-,,Study/JOL,BUFFER,4267,,,-1,-1,,,,1
M20320723,0f5n1e1fbc,"Mediated JOLs",1,5,2024-04-05T19:52:31+00:00,4.8823981285095,3,versionB_stim.csv,ReadVersion.csv,Read,Read2,MONTH,YEAR,BUFFER3,Buffer,2,3,Study,User,-,,Study/JOL,BUFFER,4745,,,-1,-1,,,,1
M20320723,0f5n1e1fbc,"Mediated JOLs",1,6,2024-04-05T19:52:33+00:00,1.8384530544281,3,versionB_stim.csv,ReadVersion.csv,Read,Read2,DAYS,WEAKS,BUFFER3,Buffer,1,5,Study,User,-,,Study/JOL,BUFFER,1693,,,-1,-1,,,,1
M20320723,0f5n1e1fbc,"Mediated JOLs",1,7,2024-04-05T19:52:34+00:00,0.58599901199341,3,versionB_stim.csv,ReadVersion.csv,Read,Read2,TOOL,SHED,BUFFER3,Buffer,3,2,Study,User,-,,Study/JOL,BUFFER,466,,,-1,-1,,,,1
M20320723,0f5n1e1fbc,"Mediated JOLs",1,8,2024-04-05T19:52:34+00:00,0.26964282989502,3,versionB_stim.csv,ReadVersion.csv,Read,Read2,LEAGUE,BASEBALL,Study2,F,29,36,Study,User,-,,Study/JOL,"Study Phase",110,,,-1,-1,,,,1
M20320723,0f5n1e1fbc,"Mediated JOLs",1,9,2024-04-05T19:52:34+00:00,0.30198097229004,3,versionB_stim.csv,ReadVersion.csv,Read,Read2,KING,VASE,Study2,U,36,32,Study,User,-,,Study/JOL,"Study Phase",146,,,-1,-1,,,,1
M20320723,0f5n1e1fbc,"Mediated JOLs",1,10,2024-04-05T19:52:36+00:00,1.0683560371399,3,versionB_stim.csv,ReadVersion.csv,Read,Read2,OVEN,BASKET,Study2,M,16,35,Study,User,-,,Study/JOL,"Study Phase",945,,,-1,-1,,,,1
M20320723,0f5n1e1fbc,"Mediated JOLs",1,11,2024-04-05T19:52:36+00:00,0.61167907714844,3,versionB_stim.csv,ReadVersion.csv,Read,Read2,REALITY,ISLAND,Study2,M,9,43,Study,User,-,,Study/JOL,"Study Phase",472,,,-1,-1,,,,1
M20320723,0f5n1e1fbc,"Mediated JOLs",1,12,2024-04-05T19:52:37+00:00,0.46591401100159,3,versionB_stim.csv,ReadVersion.csv,Read,Read2,BRIDGE,WATER,Study2,F,35,29,Study,User,-,,Study/JOL,"Study Phase",337,,,-1,-1,,,,1
M20320723,0f5n1e1fbc,"Mediated JOLs",1,13,2024-04-05T19:52:37+00:00,0.49605989456177,3,versionB_stim.csv,ReadVersion.csv,Read,Read2,WASP,BUG,Study2,F,34,38,Study,User,-,,Study/JOL,"Study Phase",345,,,-1,-1,,,,1
M20320723,0f5n1e1fbc,"Mediated JOLs",1,14,2024-04-05T19:52:40+00:00,2.4996600151062,3,versionB_stim.csv,ReadVersion.csv,Read,Read2,HAPPY,CAR,Study2,U,37,26,Study,User,-,,Study/JOL,"Study Phase",2354,,,-1,-1,,,,1
M20320723,0f5n1e1fbc,"Mediated JOLs",1,15,2024-04-05T19:52:40+00:00,0.53976702690125,3,versionB_stim.csv,ReadVersion.csv,Read,Read2,RAZOR,MUSCLE,Study2,M,20,14,Study,User,-,,Study/JOL,"Study Phase",414,,,-1,-1,,,,1
M20320723,0f5n1e1fbc,"Mediated JOLs",1,16,2024-04-05T19:52:41+00:00,0.57398700714111,3,versionB_stim.csv,ReadVersion.csv,Read,Read2,EYES,SMELL,Study2,M,10,45,Study,User,-,,Study/JOL,"Study Phase",437,,,-1,-1,,,,1
M20320723,0f5n1e1fbc,"Mediated JOLs",1,17,2024-04-05T19:52:42+00:00,1.0661239624023,3,versionB_stim.csv,ReadVersion.csv,Read,Read2,BLAZE,FIRE,Study2,F,26,44,Study,User,-,,Study/JOL,"Study Phase",941,,,-1,-1,,,,1
M20320723,0f5n1e1fbc,"Mediated JOLs",1,18,2024-04-05T19:52:45+00:00,2.9029610157013,3,versionB_stim.csv,ReadVersion.csv,Read,Read2,SOAP,DRINK,Study2,M,12,47,Study,User,-,,Study/JOL,"Study Phase",2777,,,-1,-1,,,,1
M20320723,0f5n1e1fbc,"Mediated JOLs",1,19,2024-04-05T19:52:45+00:00,0.63424015045166,3,versionB_stim.csv,ReadVersion.csv,Read,Read2,DEATH,BUSINESS,Study2,U,44,13,Study,User,-,,Study/JOL,"Study Phase",491,,,-1,-1,,,,1
M20320723,0f5n1e1fbc,"Mediated JOLs",1,20,2024-04-05T19:52:46+00:00,0.54546785354614,3,versionB_stim.csv,ReadVersion.csv,Read,Read2,HORNET,STING,Study2,F,30,33,Study,User,-,,Study/JOL,"Study Phase",398,,,-1,-1,,,,1
M20320723,0f5n1e1fbc,"Mediated JOLs",1,21,2024-04-05T19:52:46+00:00,0.48182511329651,3,versionB_stim.csv,ReadVersion.csv,Read,Read2,ARTERY,BRONZE,Study2,U,48,22,Study,User,-,,Study/JOL,"Study Phase",317,,,-1,-1,,,,1
M20320723,0f5n1e1fbc,"Mediated JOLs",1,22,2024-04-05T19:52:47+00:00,0.53686690330505,3,versionB_stim.csv,ReadVersion.csv,Read,Read2,SUMMER,SNOW,Study2,M,6,9,Study,User,-,,Study/JOL,"Study Phase",370,,,-1,-1,,,,1
M20320723,0f5n1e1fbc,"Mediated JOLs",1,23,2024-04-05T19:52:47+00:00,0.56937694549561,3,versionB_stim.csv,ReadVersion.csv,Read,Read2,STRONG,ACCIDENT,Study2,U,39,18,Study,User,-,,Study/JOL,"Study Phase",407,,,-1,-1,,,,1
M20320723,0f5n1e1fbc,"Mediated JOLs",1,24,2024-04-05T19:52:48+00:00,0.7750940322876,3,versionB_stim.csv,ReadVersion.csv,Read,Read2,RAKE,SEED,Study2,M,14,48,Study,User,-,,Study/JOL,"Study Phase",643,,,-1,-1,,,,1
M20320723,0f5n1e1fbc,"Mediated JOLs",1,25,2024-04-05T19:53:06+00:00,18.188071966171,3,versionB_stim.csv,ReadVersion.csv,Read,Read2,PUSH,CLUTTER,Study2,U,41,40,Study,User,-,,Study/JOL,"Study Phase",18047,,,-1,-1,,,,0.124
M20320723,0f5n1e1fbc,"Mediated JOLs",1,26,2024-04-05T19:53:07+00:00,0.59440612792969,3,versionB_stim.csv,ReadVersion.csv,Read,Read2,HEAVY,FEATHER,Study2,M,13,49,Study,User,-,,Study/JOL,"Study Phase",455,,,-1,-1,,,,1
M20320723,0f5n1e1fbc,"Mediated JOLs",1,27,2024-04-05T19:53:08+00:00,0.59724187850952,3,versionB_stim.csv,ReadVersion.csv,Read,Read2,ART,WOLF,Study2,U,38,28,Study,User,-,,Study/JOL,"Study Phase",468,,,-1,-1,,,,1
M20320723,0f5n1e1fbc,"Mediated JOLs",1,28,2024-04-05T19:53:09+00:00,1.0779731273651,3,versionB_stim.csv,ReadVersion.csv,Read,Read2,CHISEL,HAMMER,Study2,F,23,23,Study,User,-,,Study/JOL,"Study Phase",936,,,-1,-1,,,,1
M20320723,0f5n1e1fbc,"Mediated JOLs",1,29,2024-04-05T19:53:09+00:00,0.32755994796753,3,versionB_stim.csv,ReadVersion.csv,Read,Read2,NURSE,LAWYER,Study2,M,11,17,Study,User,-,,Study/JOL,"Study Phase",185,,,-1,-1,,,,1
M20320723,0f5n1e1fbc,"Mediated JOLs",1,30,2024-04-05T19:53:10+00:00,1.2188980579376,3,versionB_stim.csv,ReadVersion.csv,Read,Read2,GRILL,THIGH,Study2,M,17,24,Study,User,-,,Study/JOL,"Study Phase",1071,,,-1,-1,,,,1
M20320723,0f5n1e1fbc,"Mediated JOLs",1,31,2024-04-05T19:53:11+00:00,0.84261989593506,3,versionB_stim.csv,ReadVersion.csv,Read,Read2,WINDOW,KNOB,Study2,M,19,15,Study,User,-,,Study/JOL,"Study Phase",703,,,-1,-1,,,,1
M20320723,0f5n1e1fbc,"Mediated JOLs",1,32,2024-04-05T19:53:13+00:00,1.6201419830322,3,versionB_stim.csv,ReadVersion.csv,Read,Read2,CHILL,COLD,Study2,F,32,19,Study,User,-,,Study/JOL,"Study Phase",1478,,,-1,-1,,,,1
M20320723,0f5n1e1fbc,"Mediated JOLs",1,33,2024-04-05T19:53:14+00:00,1.5062379837036,3,versionB_stim.csv,ReadVersion.csv,Read,Read2,TRAP,CAVE,Study2,M,15,21,Study,User,-,,Study/JOL,"Study Phase",1371,,,-1,-1,,,,1
M20320723,0f5n1e1fbc,"Mediated JOLs",1,34,2024-04-05T19:53:17+00:00,2.7414131164551,3,versionB_stim.csv,ReadVersion.csv,Read,Read2,VALLEY,PEAK,Study2,M,18,42,Study,User,-,,Study/JOL,"Study Phase",2548,,,-1,-1,,,,1
M20320723,0f5n1e1fbc,"Mediated JOLs",1,35,2024-04-05T19:53:18+00:00,0.82964706420898,3,versionB_stim.csv,ReadVersion.csv,Read,Read2,ATTIRE,CLOTHES,Study2,F,24,7,Study,User,-,,Study/JOL,"Study Phase",438,,,-1,-1,,,,1
M20320723,0f5n1e1fbc,"Mediated JOLs",1,36,2024-04-05T19:53:18+00:00,0.57283496856689,3,versionB_stim.csv,ReadVersion.csv,Read,Read2,BOTH,OUNCE,Study2,U,47,50,Study,User,-,,Study/JOL,"Study Phase",382,,,-1,-1,,,,1
M20320723,0f5n1e1fbc,"Mediated JOLs",1,37,2024-04-05T19:53:19+00:00,0.60843586921692,3,versionB_stim.csv,ReadVersion.csv,Read,Read2,CACTUS,PLANT,Study2,F,21,27,Study,User,-,,Study/JOL,"Study Phase",475,,,-1,-1,,,,1
M20320723,0f5n1e1fbc,"Mediated JOLs",1,38,2024-04-05T19:53:19+00:00,0.5479691028595,3,versionB_stim.csv,ReadVersion.csv,Read,Read2,CHOP,CUT,Study2,F,22,46,Study,User,-,,Study/JOL,"Study Phase",407,,,-1,-1,,,,1
M20320723,0f5n1e1fbc,"Mediated JOLs",1,39,2024-04-05T19:53:20+00:00,0.33043599128723,3,versionB_stim.csv,ReadVersion.csv,Read,Read2,BENCH,HORN,Study2,U,43,51,Study,User,-,,Study/JOL,"Study Phase",194,,,-1,-1,,,,1
M20320723,0f5n1e1fbc,"Mediated JOLs",1,40,2024-04-05T19:53:21+00:00,1.0137939453125,3,versionB_stim.csv,ReadVersion.csv,Read,Read2,PANTS,COLLAR,Study2,M,8,16,Study,User,-,,Study/JOL,"Study Phase",883,,,-1,-1,,,,1
M20320723,0f5n1e1fbc,"Mediated JOLs",1,41,2024-04-05T19:53:22+00:00,0.75073504447937,3,versionB_stim.csv,ReadVersion.csv,Read,Read2,SUGAR,RIDDLE,Study2,U,40,20,Study,User,-,,Study/JOL,"Study Phase",614,,,-1,-1,,,,1
M20320723,0f5n1e1fbc,"Mediated JOLs",1,42,2024-04-05T19:53:22+00:00,0.66574287414551,3,versionB_stim.csv,ReadVersion.csv,Read,Read2,DOCUMENT,PAPER,Study2,F,27,12,Study,User,-,,Study/JOL,"Study Phase",508,,,-1,-1,,,,1
M20320723,0f5n1e1fbc,"Mediated JOLs",1,43,2024-04-05T19:53:23+00:00,0.65132808685303,3,versionB_stim.csv,ReadVersion.csv,Read,Read2,LEASE,TOIL,Study2,U,46,34,Study,User,-,,Study/JOL,"Study Phase",522,,,-1,-1,,,,1
M20320723,0f5n1e1fbc,"Mediated JOLs",1,44,2024-04-05T19:53:23+00:00,0.55709910392761,3,versionB_stim.csv,ReadVersion.csv,Read,Read2,INCENSE,SMELL,Study2,F,28,25,Study,User,-,,Study/JOL,"Study Phase",414,,,-1,-1,,,,1
M20320723,0f5n1e1fbc,"Mediated JOLs",1,45,2024-04-05T19:53:24+00:00,0.62545800209045,3,versionB_stim.csv,ReadVersion.csv,Read,Read2,CASH,LEG,Study2,U,50,11,Study,User,-,,Study/JOL,"Study Phase",470,,,-1,-1,,,,1
M20320723,0f5n1e1fbc,"Mediated JOLs",1,46,2024-04-05T19:53:25+00:00,0.56853199005127,3,versionB_stim.csv,ReadVersion.csv,Read,Read2,SICK,HIDE,Study2,U,45,41,Study,User,-,,Study/JOL,"Study Phase",427,,,-1,-1,,,,1
M20320723,0f5n1e1fbc,"Mediated JOLs",1,47,2024-04-05T19:53:25+00:00,0.81233882904053,3,versionB_stim.csv,ReadVersion.csv,Read,Read2,CHERRY,RED,Study2,F,25,31,Study,User,-,,Study/JOL,"Study Phase",680,,,-1,-1,,,,1
M20320723,0f5n1e1fbc,"Mediated JOLs",1,48,2024-04-05T19:53:26+00:00,0.61639618873596,3,versionB_stim.csv,ReadVersion.csv,Read,Read2,MIRROR,CHILDREN,Study2,U,49,39,Study,User,-,,Study/JOL,"Study Phase",467,,,-1,-1,,,,1
M20320723,0f5n1e1fbc,"Mediated JOLs",1,49,2024-04-05T19:53:27+00:00,0.5551929473877,3,versionB_stim.csv,ReadVersion.csv,Read,Read2,FEUD,FIGHT,Study2,F,31,8,Study,User,-,,Study/JOL,"Study Phase",420,,,-1,-1,,,,1
M20320723,0f5n1e1fbc,"Mediated JOLs",1,50,2024-04-05T19:53:27+00:00,0.58359503746033,3,versionB_stim.csv,ReadVersion.csv,Read,Read2,HERD,COW,Study2,F,33,30,Study,User,-,,Study/JOL,"Study Phase",430,,,-1,-1,,,,1
M20320723,0f5n1e1fbc,"Mediated JOLs",1,51,2024-04-05T19:53:28+00:00,0.64748001098633,3,versionB_stim.csv,ReadVersion.csv,Read,Read2,SCHOOL,STOP,Study2,M,7,37,Study,User,-,,Study/JOL,"Study Phase",512,,,-1,-1,,,,1
M20320723,0f5n1e1fbc,"Mediated JOLs",1,52,2024-04-05T19:53:28+00:00,0.58857202529907,3,versionB_stim.csv,ReadVersion.csv,Read,Read2,DIETARY,SACK,Study2,U,42,10,Study,User,-,,Study/JOL,"Study Phase",432,,,-1,-1,,,,1
M20320723,0f5n1e1fbc,"Mediated JOLs",1,53,2024-04-05T19:53:29+00:00,0.68265795707703,3,versionB_stim.csv,ReadVersion.csv,Read,Read2,CAMP,ADVENTURE,BUFFER4,Buffer,55,56,Study,User,-,,Study/JOL,BUFFER2,516,,,-1,-1,,,,1
M20320723,0f5n1e1fbc,"Mediated JOLs",1,54,2024-04-05T19:53:30+00:00,1.119873046875,3,versionB_stim.csv,ReadVersion.csv,Read,Read2,SPACE,JAM,BUFFER1,Buffer,60,57,Study,User,-,,Study/JOL,BUFFER2,981,,,-1,-1,,,,1
M20320723,0f5n1e1fbc,"Mediated JOLs",1,55,2024-04-05T19:53:32+00:00,1.3440988063812,3,versionB_stim.csv,ReadVersion.csv,Read,Read2,SHRIMP,FISH,BUFFER4,Buffer,53,54,Study,User,-,,Study/JOL,BUFFER2,1208,,,-1,-1,,,,1
M20320723,0f5n1e1fbc,"Mediated JOLs",1,56,2024-04-05T19:53:32+00:00,0.85278797149658,3,versionB_stim.csv,ReadVersion.csv,Read,Read2,TREES,GREEN,BUFFER1,Buffer,56,61,Study,User,-,,Study/JOL,BUFFER2,700,,,-1,-1,,,,1
M20320723,0f5n1e1fbc,"Mediated JOLs",1,57,2024-04-05T19:53:34+00:00,1.3175630569458,3,versionB_stim.csv,ReadVersion.csv,Read,Read2,CARROT,POTATO,BUFFER4,Buffer,51,52,Study,User,-,,Study/JOL,BUFFER2,1175,,,-1,-1,,,,1
M20320723,0f5n1e1fbc,"Mediated JOLs",1,58,2024-04-05T19:59:59+00:00,384.92633795738,3,versionB_stim.csv,ReadVersion.csv,Read,Read2,,,,,,0,Instruct,User,-,"You have completed this section. Please press Enter.",Filler_Instruction,Instruct2,384723,,,-1,-1,,,,0.232
M20320723,0f5n1e1fbc,"Mediated JOLs",1,59,2024-04-05T20:01:59+00:00,120.33860898018,3,versionB_stim.csv,ReadVersion.csv,Read,Read2,,,,,,0,FreeRecall,120,120,"Please list the 50 US states in alphabetical order. The task will automatically advance to the next screen after two minutes.",,Filler1,120004,"Arkansas Alabama Alaska Arizona California Colorado conneceicut ",0,3316,117422,0,0,,0.997
M20320723,0f5n1e1fbc,"Mediated JOLs",1,60,2024-04-05T20:02:12+00:00,12.603887081146,3,versionB_stim.csv,ReadVersion.csv,Read,Read2,,,,,,0,Instruct,-,10,"You will now be presented with the first word from each of the previously studied item pairs. Please type the missing word. If you do not know the word, you may guess or press Enter to skip forward to the next pair.",,Instruct3,12412,,,-1,-1,,,,0.355
M20320723,0f5n1e1fbc,"Mediated JOLs",1,61,2024-04-05T20:02:18+00:00,6.0260350704193,3,versionB_stim.csv,ReadVersion.csv,Read,Read2,INCENSE,SMELL,Study2,F,28,25,Test,User,-,,Recall,Recall1,5863,insect,36.363636363636,4559,5647,0,0,,1
M20320723,0f5n1e1fbc,"Mediated JOLs",1,62,2024-04-05T20:02:20+00:00,2.2094779014587,3,versionB_stim.csv,ReadVersion.csv,Read,Read2,SUGAR,RIDDLE,Study2,U,40,20,Test,User,-,,Recall,Recall1,2054,spice,36.363636363636,1432,1925,0,0,,1
M20320723,0f5n1e1fbc,"Mediated JOLs",1,63,2024-04-05T20:02:23+00:00,2.6396820545197,3,versionB_stim.csv,ReadVersion.csv,Read,Read2,TRAP,CAVE,Study2,M,15,21,Test,User,-,,Recall,Recall1,2471,thirst,0,1456,2288,0,0,,1
M20320723,0f5n1e1fbc,"Mediated JOLs",1,64,2024-04-05T20:02:25+00:00,2.4458839893341,3,versionB_stim.csv,ReadVersion.csv,Read,Read2,HORNET,STING,Study2,F,30,33,Test,User,-,,Recall,Recall1,2279,bee,0,1841,2126,0,0,,1
M20320723,0f5n1e1fbc,"Mediated JOLs",1,65,2024-04-05T20:02:28+00:00,3.3522779941559,3,versionB_stim.csv,ReadVersion.csv,Read,Read2,WINDOW,KNOB,Study2,M,19,15,Test,User,-,,Recall,Recall1,3172,open,25,1506,2953,0,0,,1
M20320723,0f5n1e1fbc,"Mediated JOLs",1,66,2024-04-05T20:02:31+00:00,2.2854881286621,3,versionB_stim.csv,ReadVersion.csv,Read,Read2,DOCUMENT,PAPER,Study2,F,27,12,Test,User,-,,Recall,Recall1,2139,paper,100,1361,1952,1,1,,1
M20320723,0f5n1e1fbc,"Mediated JOLs",1,67,2024-04-05T20:02:33+00:00,2.0921638011932,3,versionB_stim.csv,ReadVersion.csv,Read,Read2,RAZOR,MUSCLE,Study2,M,20,14,Test,User,-,,Recall,Recall1,1915,sharp,18.181818181818,1176,1738,0,0,,1
M20320723,0f5n1e1fbc,"Mediated JOLs",1,68,2024-04-05T20:02:35+00:00,2.4948220252991,3,versionB_stim.csv,ReadVersion.csv,Read,Read2,ATTIRE,CLOTHES,Study2,F,24,7,Test,User,-,,Recall,Recall1,2346,formal,15.384615384615,1666,2176,0,0,,1
M20320723,0f5n1e1fbc,"Mediated JOLs",1,69,2024-04-05T20:02:37+00:00,1.7292721271515,3,versionB_stim.csv,ReadVersion.csv,Read,Read2,OVEN,BASKET,Study2,M,16,35,Test,User,-,,Recall,Recall1,1586,heat,40,1028,1433,0,0,,1
M20320723,0f5n1e1fbc,"Mediated JOLs",1,70,2024-04-05T20:02:41+00:00,4.5666568279266,3,versionB_stim.csv,ReadVersion.csv,Read,Read2,CASH,LEG,Study2,U,50,11,Test,User,-,,Recall,Recall1,4401,app,0,3874,4247,0,0,,1
M20320723,0f5n1e1fbc,"Mediated JOLs",1,71,2024-04-05T20:02:44+00:00,2.432314157486,3,versionB_stim.csv,ReadVersion.csv,Read,Read2,EYES,SMELL,Study2,M,10,45,Test,User,-,,Recall,Recall1,2276,open,22.222222222222,1071,1901,0,0,,1
M20320723,0f5n1e1fbc,"Mediated JOLs",1,72,2024-04-05T20:02:47+00:00,2.6767659187317,3,versionB_stim.csv,ReadVersion.csv,Read,Read2,GRILL,THIGH,Study2,M,17,24,Test,User,-,,Recall,Recall1,2518,meat,22.222222222222,1886,2336,0,0,,1
M20320723,0f5n1e1fbc,"Mediated JOLs",1,73,2024-04-05T20:02:50+00:00,3.2644250392914,3,versionB_stim.csv,ReadVersion.csv,Read,Read2,RAKE,SEED,Study2,M,14,48,Test,User,-,,Recall,Recall1,3097,leaves,40,2345,3005,0,0,,1
M20320723,0f5n1e1fbc,"Mediated JOLs",1,74,2024-04-05T20:02:52+00:00,1.8595449924469,3,versionB_stim.csv,ReadVersion.csv,Read,Read2,SUMMER,SNOW,Study2,M,6,9,Test,User,-,,Recall,Recall1,1703,fall,0,1104,1572,0,0,,1
M20320723,0f5n1e1fbc,"Mediated JOLs",1,75,2024-04-05T20:02:54+00:00,2.0192580223083,3,versionB_stim.csv,ReadVersion.csv,Read,Read2,PUSH,CLUTTER,Study2,U,41,40,Test,User,-,,Recall,Recall1,1862,fall,18.181818181818,1270,1708,0,0,,1
M20320723,0f5n1e1fbc,"Mediated JOLs",1,76,2024-04-05T20:03:02+00:00,8.4753229618073,3,versionB_stim.csv,ReadVersion.csv,Read,Read2,MIRROR,CHILDREN,Study2,U,49,39,Test,User,-,,Recall,Recall1,8320,reflection,33.333333333333,6122,8136,0,0,,1
M20320723,0f5n1e1fbc,"Mediated JOLs",1,77,2024-04-05T20:03:10+00:00,7.9236850738525,3,versionB_stim.csv,ReadVersion.csv,Read,Read2,FEUD,FIGHT,Study2,F,31,8,Test,User,-,,Recall,Recall1,7773,theory,18.181818181818,3317,7580,0,0,,1
M20320723,0f5n1e1fbc,"Mediated JOLs",1,78,2024-04-05T20:03:14+00:00,4.0374188423157,3,versionB_stim.csv,ReadVersion.csv,Read,Read2,ARTERY,BRONZE,Study2,U,48,22,Test,User,-,,Recall,Recall1,3877,body,40,3245,3691,0,0,,1
M20320723,0f5n1e1fbc,"Mediated JOLs",1,79,2024-04-05T20:03:16+00:00,1.9997141361237,3,versionB_stim.csv,ReadVersion.csv,Read,Read2,HAPPY,CAR,Study2,U,37,26,Test,User,-,,Recall,Recall1,1857,sad,33.333333333333,1286,1670,0,0,,1
M20320723,0f5n1e1fbc,"Mediated JOLs",1,80,2024-04-05T20:03:21+00:00,4.3811428546906,3,versionB_stim.csv,ReadVersion.csv,Read,Read2,CHISEL,HAMMER,Study2,F,23,23,Test,User,-,,Recall,Recall1,4198,knee,20,3030,4047,0,0,,1
M20320723,0f5n1e1fbc,"Mediated JOLs",1,81,2024-04-05T20:03:27+00:00,6.7802982330322,3,versionB_stim.csv,ReadVersion.csv,Read,Read2,NURSE,LAWYER,Study2,M,11,17,Test,User,-,,Recall,Recall1,6644,hospital,14.285714285714,5149,6402,0,0,,1
M20320723,0f5n1e1fbc,"Mediated JOLs",1,82,2024-04-05T20:03:30+00:00,3.104987859726,3,versionB_stim.csv,ReadVersion.csv,Read,Read2,REALITY,ISLAND,Study2,M,9,43,Test,User,-,,Recall,Recall1,2971,check,0,1993,2493,0,0,,1
M20320723,0f5n1e1fbc,"Mediated JOLs",1,83,2024-04-05T20:03:32+00:00,1.9787020683289,3,versionB_stim.csv,ReadVersion.csv,Read,Read2,CHILL,COLD,Study2,F,32,19,Test,User,-,,Recall,Recall1,1826,down,25,1357,1664,0,0,,1
M20320723,0f5n1e1fbc,"Mediated JOLs",1,84,2024-04-05T20:03:35+00:00,2.8017058372498,3,versionB_stim.csv,ReadVersion.csv,Read,Read2,DIETARY,SACK,Study2,U,42,10,Test,User,-,,Recall,Recall1,2641,healthy,18.181818181818,1641,2495,0,0,,1
M20320723,0f5n1e1fbc,"Mediated JOLs",1,85,2024-04-05T20:03:37+00:00,2.1700360774994,3,versionB_stim.csv,ReadVersion.csv,Read,Read2,HEAVY,FEATHER,Study2,M,13,49,Test,User,-,,Recall,Recall1,2017,metal,33.333333333333,1254,1846,0,0,,1
M20320723,0f5n1e1fbc,"Mediated JOLs",1,86,2024-04-05T20:03:42+00:00,4.1490931510925,3,versionB_stim.csv,ReadVersion.csv,Read,Read2,DEATH,BUSINESS,Study2,U,44,13,Test,User,-,,Recall,Recall1,3990,stare,30.769230769231,2110,3869,0,0,,1
M20320723,0f5n1e1fbc,"Mediated JOLs",1,87,2024-04-05T20:03:45+00:00,3.7267558574677,3,versionB_stim.csv,ReadVersion.csv,Read,Read2,PANTS,COLLAR,Study2,M,8,16,Test,User,-,,Recall,Recall1,3579,wear,40,2971,3443,0,0,,1
M20320723,0f5n1e1fbc,"Mediated JOLs",1,88,2024-04-05T20:03:47+00:00,2.1653029918671,3,versionB_stim.csv,ReadVersion.csv,Read,Read2,CACTUS,PLANT,Study2,F,21,27,Test,User,-,,Recall,Recall1,2008,plant,100,1342,1902,1,1,,1
M20320723,0f5n1e1fbc,"Mediated JOLs",1,89,2024-04-05T20:03:50+00:00,2.68825507164,3,versionB_stim.csv,ReadVersion.csv,Read,Read2,BLAZE,FIRE,Study2,F,26,44,Test,User,-,,Recall,Recall1,2537,suit,25,1848,2396,0,0,,1
M20320723,0f5n1e1fbc,"Mediated JOLs",1,90,2024-04-05T20:03:52+00:00,2.2342100143433,3,versionB_stim.csv,ReadVersion.csv,Read,Read2,BRIDGE,WATER,Study2,F,35,29,Test,User,-,,Recall,Recall1,2076,water,100,1342,1931,1,1,,1
M20320723,0f5n1e1fbc,"Mediated JOLs",1,91,2024-04-05T20:03:57+00:00,4.3696959018707,3,versionB_stim.csv,ReadVersion.csv,Read,Read2,CHOP,CUT,Study2,F,22,46,Test,User,-,,Recall,Recall1,4219,pork,0,3468,3970,0,0,,1
M20320723,0f5n1e1fbc,"Mediated JOLs",1,92,2024-04-05T20:03:59+00:00,2.7833580970764,3,versionB_stim.csv,ReadVersion.csv,Read,Read2,HERD,COW,Study2,F,33,30,Test,User,-,,Recall,Recall1,2620,cows,85.714285714286,2012,2507,0,1,,1
M20320723,0f5n1e1fbc,"Mediated JOLs",1,93,2024-04-05T20:04:02+00:00,2.2039020061493,3,versionB_stim.csv,ReadVersion.csv,Read,Read2,BOTH,OUNCE,Study2,U,47,50,Test,User,-,,Recall,Recall1,2059,ways,0,1531,1925,0,0,,1
M20320723,0f5n1e1fbc,"Mediated JOLs",1,94,2024-04-05T20:04:04+00:00,2.5740749835968,3,versionB_stim.csv,ReadVersion.csv,Read,Read2,VALLEY,PEAK,Study2,M,18,42,Test,User,-,,Recall,Recall1,2424,hill,0,1713,2240,0,0,,1
M20320723,0f5n1e1fbc,"Mediated JOLs",1,95,2024-04-05T20:04:08+00:00,3.4434158802032,3,versionB_stim.csv,ReadVersion.csv,Read,Read2,BENCH,HORN,Study2,U,43,51,Test,User,-,,Recall,Recall1,3282,seat,0,2166,3056,0,0,,1
M20320723,0f5n1e1fbc,"Mediated JOLs",1,96,2024-04-05T20:04:10+00:00,2.1345901489258,3,versionB_stim.csv,ReadVersion.csv,Read,Read2,SICK,HIDE,Study2,U,45,41,Test,User,-,,Recall,Recall1,1976,ill,28.571428571429,1475,1825,0,0,,1
M20320723,0f5n1e1fbc,"Mediated JOLs",1,97,2024-04-05T20:04:12+00:00,2.1395280361176,3,versionB_stim.csv,ReadVersion.csv,Read,Read2,ART,WOLF,Study2,U,38,28,Test,User,-,,Recall,Recall1,1980,paint,0,1272,1844,0,0,,1
M20320723,0f5n1e1fbc,"Mediated JOLs",1,98,2024-04-05T20:04:15+00:00,2.935122013092,3,versionB_stim.csv,ReadVersion.csv,Read,Read2,CHERRY,RED,Study2,F,25,31,Test,User,-,,Recall,Recall1,2775,blossom,0,1176,2622,0,0,,1
M20320723,0f5n1e1fbc,"Mediated JOLs",1,99,2024-04-05T20:04:20+00:00,5.0634198188782,3,versionB_stim.csv,ReadVersion.csv,Read,Read2,LEASE,TOIL,Study2,U,46,34,Test,User,-,,Recall,Recall1,4920,apartment,15.384615384615,1968,4769,0,0,,1
M20320723,0f5n1e1fbc,"Mediated JOLs",1,100,2024-04-05T20:04:22+00:00,2.4490311145782,3,versionB_stim.csv,ReadVersion.csv,Read,Read2,STRONG,ACCIDENT,Study2,U,39,18,Test,User,-,,Recall,Recall1,2290,will,16.666666666667,1609,2144,0,0,,1
M20320723,0f5n1e1fbc,"Mediated JOLs",1,101,2024-04-05T20:04:25+00:00,2.9122228622437,3,versionB_stim.csv,ReadVersion.csv,Read,Read2,LEAGUE,BASEBALL,Study2,F,29,36,Test,User,-,,Recall,Recall1,2588,faith,15.384615384615,1980,2480,0,0,,1
M20320723,0f5n1e1fbc,"Mediated JOLs",1,102,2024-04-05T20:04:29+00:00,3.9081192016602,3,versionB_stim.csv,ReadVersion.csv,Read,Read2,WASP,BUG,Study2,F,34,38,Test,User,-,,Recall,Recall1,3743,insect,0,2510,3582,0,0,,1
M20320723,0f5n1e1fbc,"Mediated JOLs",1,103,2024-04-05T20:04:33+00:00,3.4804978370667,3,versionB_stim.csv,ReadVersion.csv,Read,Read2,SOAP,DRINK,Study2,M,12,47,Test,User,-,,Recall,Recall1,3328,shower,18.181818181818,1517,3164,0,0,,1
M20320723,0f5n1e1fbc,"Mediated JOLs",1,104,2024-04-05T20:04:36+00:00,3.0488290786743,3,versionB_stim.csv,ReadVersion.csv,Read,Read2,SCHOOL,STOP,Study2,M,7,37,Test,User,-,,Recall,Recall1,2891,bus,28.571428571429,2330,2680,0,0,,1
M20320723,0f5n1e1fbc,"Mediated JOLs",1,105,2024-04-05T20:04:39+00:00,2.7548470497131,3,versionB_stim.csv,ReadVersion.csv,Read,Read2,KING,VASE,Study2,U,36,32,Test,User,-,,Recall,Recall1,2597,queen,22.222222222222,1568,2375,0,0,,1
M20320723,0f5n1e1fbc,"Mediated JOLs",1,106,2024-04-05T20:04:49+00:00,10.679826021194,3,versionB_stim.csv,ReadVersion.csv,Read,Read2,,,,,,0,Instruct,-,10,"You will now be presented with a new set of word pairs. Please study each pair. Remember that your memory will be tested! When finished, press Enter to move to the next pair.",Initial_Instruct,Instruct4,10535,,,-1,-1,,,,0.643
M20320723,0f5n1e1fbc,"Mediated JOLs",1,107,2024-04-05T20:04:51+00:00,1.8983738422394,3,versionB_stim.csv,ReadVersion.csv,Read,Read2,,,,,,0,Instruct,User,-,"Press Enter when you are readty to begin",,Instruct11,1757,,,-1,-1,,,,1
M20320723,0f5n1e1fbc,"Mediated JOLs",1,108,2024-04-05T20:04:53+00:00,1.8917319774628,3,versionB_stim.csv,ReadVersion.csv,Read,Read2,ICE,FROZEN,BUFFER4,Buffer,54,53,Study,User,-,,Study/JOL,BUFFER2,1741,,,-1,-1,,,,1
M20320723,0f5n1e1fbc,"Mediated JOLs",1,109,2024-04-05T20:04:53+00:00,0.47509813308716,3,versionB_stim.csv,ReadVersion.csv,Read,Read2,THING,STUFF,BUFFER2,Buffer,110,108,Study,User,-,,Study/JOL,BUFFER2,340,,,-1,-1,,,,1
M20320723,0f5n1e1fbc,"Mediated JOLs",1,110,2024-04-05T20:04:54+00:00,0.4696409702301,3,versionB_stim.csv,ReadVersion.csv,Read,Read2,PITCHER,CATCHER,BUFFER1,Buffer,57,59,Study,User,-,,Study/JOL,BUFFER2,326,,,-1,-1,,,,1
M20320723,0f5n1e1fbc,"Mediated JOLs",1,111,2024-04-05T20:04:54+00:00,0.48284006118774,3,versionB_stim.csv,ReadVersion.csv,Read,Read2,PEANUT,BUTTER,BUFFER1,Buffer,58,60,Study,User,-,,Study/JOL,BUFFER2,341,,,-1,-1,,,,1
M20320723,0f5n1e1fbc,"Mediated JOLs",1,112,2024-04-05T20:04:56+00:00,1.0872929096222,3,versionB_stim.csv,ReadVersion.csv,Read,Read2,MOON,SPACE,BUFFER2,Buffer,109,110,Study,User,-,,Study/JOL,BUFFER2,947,,,-1,-1,,,,1
M20320723,0f5n1e1fbc,"Mediated JOLs",1,113,2024-04-05T20:05:00+00:00,4.1843581199646,3,versionB_stim.csv,ReadVersion.csv,Read,Read2,BEACH,BOX,Study1,M,62,71,Study,User,-,,Study/JOL,"Study Phase2",3792,,,-1,-1,,,,1
M20320723,0f5n1e1fbc,"Mediated JOLs",1,114,2024-04-05T20:05:01+00:00,1.1988019943237,3,versionB_stim.csv,ReadVersion.csv,Read,Read2,ROOT,PLANT,Study1,F,80,92,Study,User,-,,Study/JOL,"Study Phase2",1071,,,-1,-1,,,,1
M20320723,0f5n1e1fbc,"Mediated JOLs",1,115,2024-04-05T20:05:02+00:00,1.5665998458862,3,versionB_stim.csv,ReadVersion.csv,Read,Read2,STRETCH,CLOTH,Study1,U,92,84,Study,User,-,,Study/JOL,"Study Phase2",1420,,,-1,-1,,,,1
M20320723,0f5n1e1fbc,"Mediated JOLs",1,116,2024-04-05T20:05:04+00:00,1.2673530578613,3,versionB_stim.csv,ReadVersion.csv,Read,Read2,HORSE,WHEEL,Study1,M,69,104,Study,User,-,,Study/JOL,"Study Phase2",1129,,,-1,-1,,,,1
M20320723,0f5n1e1fbc,"Mediated JOLs",1,117,2024-04-05T20:05:05+00:00,1.2027449607849,3,versionB_stim.csv,ReadVersion.csv,Read,Read2,BAT,BOUNCE,Study1,M,67,103,Study,User,-,,Study/JOL,"Study Phase2",1067,,,-1,-1,,,,1
M20320723,0f5n1e1fbc,"Mediated JOLs",1,118,2024-04-05T20:05:06+00:00,1.0277030467987,3,versionB_stim.csv,ReadVersion.csv,Read,Read2,SIP,DRINK,Study1,F,87,77,Study,User,-,,Study/JOL,"Study Phase2",899,,,-1,-1,,,,1
M20320723,0f5n1e1fbc,"Mediated JOLs",1,119,2024-04-05T20:05:07+00:00,0.74876093864441,3,versionB_stim.csv,ReadVersion.csv,Read,Read2,FUZZY,BANG,Study1,U,105,87,Study,User,-,,Study/JOL,"Study Phase2",612,,,-1,-1,,,,1
M20320723,0f5n1e1fbc,"Mediated JOLs",1,120,2024-04-05T20:05:08+00:00,0.9963641166687,3,versionB_stim.csv,ReadVersion.csv,Read,Read2,AFFECTION,LOVE,Study1,F,86,73,Study,User,-,,Study/JOL,"Study Phase2",854,,,-1,-1,,,,1
M20320723,0f5n1e1fbc,"Mediated JOLs",1,121,2024-04-05T20:05:09+00:00,1.0818519592285,3,versionB_stim.csv,ReadVersion.csv,Read,Read2,WEDDING,FINGER,Study1,M,72,97,Study,User,-,,Study/JOL,"Study Phase2",934,,,-1,-1,,,,1
M20320723,0f5n1e1fbc,"Mediated JOLs",1,122,2024-04-05T20:05:10+00:00,1.1705360412598,3,versionB_stim.csv,ReadVersion.csv,Read,Read2,GIVE,STEAK,Study1,U,93,106,Study,User,-,,Study/JOL,"Study Phase2",1024,,,-1,-1,,,,1
M20320723,0f5n1e1fbc,"Mediated JOLs",1,123,2024-04-05T20:05:12+00:00,1.686381816864,3,versionB_stim.csv,ReadVersion.csv,Read,Read2,WAGE,MONEY,Study1,F,77,62,Study,User,-,,Study/JOL,"Study Phase2",1538,,,-1,-1,,,,1
M20320723,0f5n1e1fbc,"Mediated JOLs",1,124,2024-04-05T20:05:27+00:00,14.936408042908,3,versionB_stim.csv,ReadVersion.csv,Read,Read2,LION,STRIPES,Study1,M,61,81,Study,User,-,,Study/JOL,"Study Phase2",14795,,,-1,-1,,,,1
M20320723,0f5n1e1fbc,"Mediated JOLs",1,125,2024-04-05T20:05:41+00:00,14.330322980881,3,versionB_stim.csv,ReadVersion.csv,Read,Read2,SOON,BELT,Study1,U,101,76,Study,User,-,,Study/JOL,"Study Phase2",14194,,,-1,-1,,,,1
M20320723,0f5n1e1fbc,"Mediated JOLs",1,126,2024-04-05T20:05:42+00:00,1.1835460662842,3,versionB_stim.csv,ReadVersion.csv,Read,Read2,SIGN,TICK,Study1,U,102,79,Study,User,-,,Study/JOL,"Study Phase2",1044,,,-1,-1,,,,1
M20320723,0f5n1e1fbc,"Mediated JOLs",1,127,2024-04-05T20:05:43+00:00,1.117644071579,3,versionB_stim.csv,ReadVersion.csv,Read,Read2,CREDIT,CARD,Study1,F,88,69,Study,User,-,,Study/JOL,"Study Phase2",979,,,-1,-1,,,,1
M20320723,0f5n1e1fbc,"Mediated JOLs",1,128,2024-04-05T20:05:44+00:00,0.90970993041992,3,versionB_stim.csv,ReadVersion.csv,Read,Read2,TOOTH,HAIR,Study1,M,74,66,Study,User,-,,Study/JOL,"Study Phase2",773,,,-1,-1,,,,1
M20320723,0f5n1e1fbc,"Mediated JOLs",1,129,2024-04-05T20:05:45+00:00,0.90131402015686,3,versionB_stim.csv,ReadVersion.csv,Read,Read2,HARD,COTTON,Study1,M,75,93,Study,User,-,,Study/JOL,"Study Phase2",750,,,-1,-1,,,,1
M20320723,0f5n1e1fbc,"Mediated JOLs",1,130,2024-04-05T20:05:46+00:00,0.83406496047974,3,versionB_stim.csv,ReadVersion.csv,Read,Read2,CRY,BOTTLE,Study1,M,71,85,Study,User,-,,Study/JOL,"Study Phase2",698,,,-1,-1,,,,1
M20320723,0f5n1e1fbc,"Mediated JOLs",1,131,2024-04-05T20:05:47+00:00,0.84449195861816,3,versionB_stim.csv,ReadVersion.csv,Read,Read2,KEYS,ROD,Study1,U,100,70,Study,User,-,,Study/JOL,"Study Phase2",714,,,-1,-1,,,,1
M20320723,0f5n1e1fbc,"Mediated JOLs",1,132,2024-04-05T20:05:48+00:00,0.8306679725647,3,versionB_stim.csv,ReadVersion.csv,Read,Read2,SHELL,SHAKE,Study1,U,98,105,Study,User,-,,Study/JOL,"Study Phase2",674,,,-1,-1,,,,1
M20320723,0f5n1e1fbc,"Mediated JOLs",1,133,2024-04-05T20:05:48+00:00,0.58176112174988,3,versionB_stim.csv,ReadVersion.csv,Read,Read2,ROUGH,SILK,Study1,M,65,63,Study,User,-,,Study/JOL,"Study Phase2",421,,,-1,-1,,,,1
M20320723,0f5n1e1fbc,"Mediated JOLs",1,134,2024-04-05T20:05:53+00:00,5.0738339424133,3,versionB_stim.csv,ReadVersion.csv,Read,Read2,WAR,QUIET,Study1,M,63,95,Study,User,-,,Study/JOL,"Study Phase2",4935,,,-1,-1,,,,1
M20320723,0f5n1e1fbc,"Mediated JOLs",1,135,2024-04-05T20:05:54+00:00,0.81955504417419,3,versionB_stim.csv,ReadVersion.csv,Read,Read2,ORCHID,FLOWER,Study1,F,89,91,Study,User,-,,Study/JOL,"Study Phase2",668,,,-1,-1,,,,1
M20320723,0f5n1e1fbc,"Mediated JOLs",1,136,2024-04-05T20:05:59+00:00,5.0154330730438,3,versionB_stim.csv,ReadVersion.csv,Read,Read2,SCALP,HEAD,Study1,F,78,89,Study,User,-,,Study/JOL,"Study Phase2",4792,,,-1,-1,,,,1
M20320723,0f5n1e1fbc,"Mediated JOLs",1,137,2024-04-05T20:06:00+00:00,0.81501293182373,3,versionB_stim.csv,ReadVersion.csv,Read,Read2,LITTER,TRASH,Study1,F,76,88,Study,User,-,,Study/JOL,"Study Phase2",685,,,-1,-1,,,,1
M20320723,0f5n1e1fbc,"Mediated JOLs",1,138,2024-04-05T20:06:01+00:00,0.88778305053711,3,versionB_stim.csv,ReadVersion.csv,Read,Read2,TREE,SYRUP,Study1,M,66,72,Study,User,-,,Study/JOL,"Study Phase2",745,,,-1,-1,,,,1
M20320723,0f5n1e1fbc,"Mediated JOLs",1,139,2024-04-05T20:06:34+00:00,33.723340034485,3,versionB_stim.csv,ReadVersion.csv,Read,Read2,MULE,DONKEY,Study1,F,79,64,Study,User,-,,Study/JOL,"Study Phase2",33575,,,-1,-1,,,,1
M20320723,0f5n1e1fbc,"Mediated JOLs",1,140,2024-04-05T20:06:36+00:00,1.6989328861237,3,versionB_stim.csv,ReadVersion.csv,Read,Read2,MAZE,PHONE,Study1,U,97,86,Study,User,-,,Study/JOL,"Study Phase2",1548,,,-1,-1,,,,1
M20320723,0f5n1e1fbc,"Mediated JOLs",1,141,2024-04-05T20:06:38+00:00,1.3548889160156,3,versionB_stim.csv,ReadVersion.csv,Read,Read2,CIRCLE,DANCE,Study1,M,68,78,Study,User,-,,Study/JOL,"Study Phase2",1192,,,-1,-1,,,,1
M20320723,0f5n1e1fbc,"Mediated JOLs",1,142,2024-04-05T20:06:39+00:00,1.1396851539612,3,versionB_stim.csv,ReadVersion.csv,Read,Read2,CEILING,CARPET,Study1,M,70,74,Study,User,-,,Study/JOL,"Study Phase2",1001,,,-1,-1,,,,1
M20320723,0f5n1e1fbc,"Mediated JOLs",1,143,2024-04-05T20:06:39+00:00,0.80966997146606,3,versionB_stim.csv,ReadVersion.csv,Read,Read2,WORD,SENTENCE,Study1,F,82,100,Study,User,-,,Study/JOL,"Study Phase2",660,,,-1,-1,,,,1
M20320723,0f5n1e1fbc,"Mediated JOLs",1,144,2024-04-05T20:06:45+00:00,5.5522270202637,3,versionB_stim.csv,ReadVersion.csv,Read,Read2,LISTEN,FICTION,Study1,U,99,75,Study,User,-,,Study/JOL,"Study Phase2",5403,,,-1,-1,,,,1
M20320723,0f5n1e1fbc,"Mediated JOLs",1,145,2024-04-05T20:06:46+00:00,0.7016429901123,3,versionB_stim.csv,ReadVersion.csv,Read,Read2,MEAT,KEYS,Study1,U,96,90,Study,User,-,,Study/JOL,"Study Phase2",552,,,-1,-1,,,,1
M20320723,0f5n1e1fbc,"Mediated JOLs",1,146,2024-04-05T20:06:46+00:00,0.63191390037537,3,versionB_stim.csv,ReadVersion.csv,Read,Read2,TEMPERATURE,MORNING,Study1,U,103,94,Study,User,-,,Study/JOL,"Study Phase2",497,,,-1,-1,,,,1
M20320723,0f5n1e1fbc,"Mediated JOLs",1,147,2024-04-05T20:06:47+00:00,0.85997295379639,3,versionB_stim.csv,ReadVersion.csv,Read,Read2,TUNA,FISH,Study1,F,90,101,Study,User,-,,Study/JOL,"Study Phase2",697,,,-1,-1,,,,1
M20320723,0f5n1e1fbc,"Mediated JOLs",1,148,2024-04-05T20:06:48+00:00,1.037034034729,3,versionB_stim.csv,ReadVersion.csv,Read,Read2,CAKE,HAND,Study1,U,104,80,Study,User,-,,Study/JOL,"Study Phase2",892,,,-1,-1,,,,1
M20320723,0f5n1e1fbc,"Mediated JOLs",1,149,2024-04-05T20:06:50+00:00,1.3935890197754,3,versionB_stim.csv,ReadVersion.csv,Read,Read2,MIRROR,MAROON,Study1,U,91,99,Study,User,-,,Study/JOL,"Study Phase2",1254,,,-1,-1,,,,1
M20320723,0f5n1e1fbc,"Mediated JOLs",1,150,2024-04-05T20:06:51+00:00,0.90650916099548,3,versionB_stim.csv,ReadVersion.csv,Read,Read2,CRACKLE,ELECTION,Study1,U,94,98,Study,User,-,,Study/JOL,"Study Phase2",764,,,-1,-1,,,,1
M20320723,0f5n1e1fbc,"Mediated JOLs",1,151,2024-04-05T20:06:52+00:00,1.3613719940186,3,versionB_stim.csv,ReadVersion.csv,Read,Read2,SWAN,BIRD,Study1,F,81,102,Study,User,-,,Study/JOL,"Study Phase2",1223,,,-1,-1,,,,1
M20320723,0f5n1e1fbc,"Mediated JOLs",1,152,2024-04-05T20:06:53+00:00,1.4864130020142,3,versionB_stim.csv,ReadVersion.csv,Read,Read2,HYGIENE,CLEAN,Study1,F,83,65,Study,User,-,,Study/JOL,"Study Phase2",1341,,,-1,-1,,,,1
M20320723,0f5n1e1fbc,"Mediated JOLs",1,153,2024-04-05T20:06:54+00:00,0.96592497825623,3,versionB_stim.csv,ReadVersion.csv,Read,Read2,VEHICLE,CHARM,Study1,U,95,67,Study,User,-,,Study/JOL,"Study Phase2",807,,,-1,-1,,,,1
M20320723,0f5n1e1fbc,"Mediated JOLs",1,154,2024-04-05T20:06:55+00:00,1.076721906662,3,versionB_stim.csv,ReadVersion.csv,Read,Read2,DAY,DARK,Study1,M,73,83,Study,User,-,,Study/JOL,"Study Phase2",928,,,-1,-1,,,,1
M20320723,0f5n1e1fbc,"Mediated JOLs",1,155,2024-04-05T20:06:56+00:00,0.99833512306213,3,versionB_stim.csv,ReadVersion.csv,Read,Read2,MULE,DONKEY,Study1,F,85,68,Study,User,-,,Study/JOL,"Study Phase2",833,,,-1,-1,,,,1
M20320723,0f5n1e1fbc,"Mediated JOLs",1,156,2024-04-05T20:06:57+00:00,0.78100490570068,3,versionB_stim.csv,ReadVersion.csv,Read,Read2,BIRTHDAY,PIE,Study1,M,64,82,Study,User,-,,Study/JOL,"Study Phase2",633,,,-1,-1,,,,1
M20320723,0f5n1e1fbc,"Mediated JOLs",1,157,2024-04-05T20:06:58+00:00,0.74949598312378,3,versionB_stim.csv,ReadVersion.csv,Read,Read2,NAP,SLEEP,Study1,F,84,96,Study,User,-,,Study/JOL,"Study Phase2",616,,,-1,-1,,,,1
M20320723,0f5n1e1fbc,"Mediated JOLs",1,158,2024-04-05T20:06:59+00:00,1.1814289093018,3,versionB_stim.csv,ReadVersion.csv,Read,Read2,MALT,CHOCOLATE,BUFFER2,Buffer,108,107,Study,User,-,,Study/JOL,BUFFER2,1033,,,-1,-1,,,,1
M20320723,0f5n1e1fbc,"Mediated JOLs",1,159,2024-04-05T20:07:07+00:00,8.0905661582947,3,versionB_stim.csv,ReadVersion.csv,Read,Read2,SCARE,FRIGHT,BUFFER1,Buffer,59,58,Study,User,-,,Study/JOL,BUFFER2,7954,,,-1,-1,,,,0.429
M20320723,0f5n1e1fbc,"Mediated JOLs",1,160,2024-04-05T20:07:09+00:00,1.2930059432983,3,versionB_stim.csv,ReadVersion.csv,Read,Read2,SHERRIF,POLICE,BUFFER2,Buffer,107,111,Study,User,-,,Study/JOL,BUFFER2,1159,,,-1,-1,,,,1
M20320723,0f5n1e1fbc,"Mediated JOLs",1,161,2024-04-05T20:07:09+00:00,0.84363389015198,3,versionB_stim.csv,ReadVersion.csv,Read,Read2,NOODLE,STRING,BUFFER4,Buffer,52,55,Study,User,-,,Study/JOL,BUFFER2,726,,,-1,-1,,,,1
M20320723,0f5n1e1fbc,"Mediated JOLs",1,162,2024-04-05T20:08:11+00:00,61.239342212677,3,versionB_stim.csv,ReadVersion.csv,Read,Read2,GEESE,GOOSE,BUFFER2,Buffer,106,109,Study,User,-,,Study/JOL,BUFFER2,61130,,,-1,-1,,,,0.036
M20320723,0f5n1e1fbc,"Mediated JOLs",1,163,2024-04-05T20:08:13+00:00,1.9374198913574,3,versionB_stim.csv,ReadVersion.csv,Read,Read2,,,,,,0,Instruct,User,-,"You have completed this section. Please press Enter.",Filler_Instruction,Instruct2,1808,,,-1,-1,,,,1
M20320723,0f5n1e1fbc,"Mediated JOLs",1,164,2024-04-05T20:10:13+00:00,120.18854808807,3,versionB_stim.csv,ReadVersion.csv,Read,Read2,,,,,,0,FreeRecall,120,120,"Please list the 50 US states in alphabetical order. The task will automatically advance to the next screen after two minutes.",,Filler1,120002,"Arkansas Alabama Alaska Alabama California Colorado Connecticut ",0,4828,82627,0,0,,0.98
M20320723,0f5n1e1fbc,"Mediated JOLs",1,165,2024-04-05T20:11:21+00:00,68.301693916321,3,versionB_stim.csv,ReadVersion.csv,Read,Read2,,,,,,0,Instruct,-,10,"You will now be presented with the first word from each of the previously studied item pairs. Please type the missing word. If you do not know the word, you may guess or press Enter to skip forward to the next pair.",,Instruct3,68153,,,-1,-1,,,,0.932
M20320723,0f5n1e1fbc,"Mediated JOLs",1,166,2024-04-05T20:11:24+00:00,3.1384119987488,3,versionB_stim.csv,ReadVersion.csv,Read,Read2,ROUGH,SILK,Study1,M,65,63,Test,User,-,,Recall,Recall2,3002,start,22.222222222222,1987,2848,0,0,,1
M20320723,0f5n1e1fbc,"Mediated JOLs",1,167,2024-04-05T20:11:29+00:00,4.3635029792786,3,versionB_stim.csv,ReadVersion.csv,Read,Read2,BIRTHDAY,PIE,Study1,M,64,82,Test,User,-,,Recall,Recall2,4239,party,25,3335,4087,0,0,,1
M20320723,0f5n1e1fbc,"Mediated JOLs",1,168,2024-04-05T20:11:32+00:00,3.1271920204163,3,versionB_stim.csv,ReadVersion.csv,Read,Read2,MULE,DONKEY,Study1,F,85,68,Test,User,-,,Recall,Recall2,3012,animal,16.666666666667,2133,2796,0,0,,1
M20320723,0f5n1e1fbc,"Mediated JOLs",1,169,2024-04-05T20:11:34+00:00,2.4422900676727,3,versionB_stim.csv,ReadVersion.csv,Read,Read2,SHELL,SHAKE,Study1,U,98,105,Test,User,-,,Recall,Recall2,2330,sea,50,1808,2184,0,0,,1
M20320723,0f5n1e1fbc,"Mediated JOLs",1,170,2024-04-05T20:11:36+00:00,2.1900448799133,3,versionB_stim.csv,ReadVersion.csv,Read,Read2,DAY,DARK,Study1,M,73,83,Test,User,-,,Recall,Recall2,2082,start,44.444444444444,1299,1953,0,0,,1
M20320723,0f5n1e1fbc,"Mediated JOLs",1,171,2024-04-05T20:11:39+00:00,2.5416259765625,3,versionB_stim.csv,ReadVersion.csv,Read,Read2,NAP,SLEEP,Study1,F,84,96,Test,User,-,,Recall,Recall2,2425,sleep,100,1218,1713,1,1,,1
M20320723,0f5n1e1fbc,"Mediated JOLs",1,172,2024-04-05T20:11:52+00:00,13.4766061306,3,versionB_stim.csv,ReadVersion.csv,Read,Read2,CRY,BOTTLE,Study1,M,71,85,Test,User,-,,Recall,Recall2,13358,snore,36.363636363636,12671,13230,0,0,,1
M20320723,0f5n1e1fbc,"Mediated JOLs",1,173,2024-04-05T20:11:54+00:00,2.1549570560455,3,versionB_stim.csv,ReadVersion.csv,Read,Read2,BAT,BOUNCE,Study1,M,67,103,Test,User,-,,Recall,Recall2,2044,cave,40,1485,1924,0,0,,1
M20320723,0f5n1e1fbc,"Mediated JOLs",1,174,2024-04-05T20:11:56+00:00,1.7185049057007,3,versionB_stim.csv,ReadVersion.csv,Read,Read2,TOOTH,HAIR,Study1,M,74,66,Test,User,-,,Recall,Recall2,1599,hair,100,1183,1495,1,1,,1
M20320723,0f5n1e1fbc,"Mediated JOLs",1,175,2024-04-05T20:12:00+00:00,3.8749129772186,3,versionB_stim.csv,ReadVersion.csv,Read,Read2,WEDDING,FINGER,Study1,M,72,97,Test,User,-,,Recall,Recall2,3755,dress,18.181818181818,2547,3674,0,0,,1
M20320723,0f5n1e1fbc,"Mediated JOLs",1,176,2024-04-05T20:12:02+00:00,2.2163980007172,3,versionB_stim.csv,ReadVersion.csv,Read,Read2,LITTER,TRASH,Study1,F,76,88,Test,User,-,,Recall,Recall2,2104,cat,25,1513,1936,0,0,,1
M20320723,0f5n1e1fbc,"Mediated JOLs",1,177,2024-04-05T20:12:05+00:00,2.3277349472046,3,versionB_stim.csv,ReadVersion.csv,Read,Read2,TUNA,FISH,Study1,F,90,101,Test,User,-,,Recall,Recall2,2214,fish,100,1719,2062,1,1,,1
M20320723,0f5n1e1fbc,"Mediated JOLs",1,178,2024-04-05T20:13:07+00:00,62.627971172333,3,versionB_stim.csv,ReadVersion.csv,Read,Read2,WAGE,MONEY,Study1,F,77,62,Test,User,-,,Recall,Recall2,62498,minimum,33.333333333333,59938,62274,0,0,,0.106
M20320723,0f5n1e1fbc,"Mediated JOLs",1,179,2024-04-05T20:13:10+00:00,2.5466578006744,3,versionB_stim.csv,ReadVersion.csv,Read,Read2,HYGIENE,CLEAN,Study1,F,83,65,Test,User,-,,Recall,Recall2,2414,shower,18.181818181818,1486,2246,0,0,,1
M20320723,0f5n1e1fbc,"Mediated JOLs",1,180,2024-04-05T20:13:13+00:00,2.7115740776062,3,versionB_stim.csv,ReadVersion.csv,Read,Read2,CIRCLE,DANCE,Study1,M,68,78,Test,User,-,,Recall,Recall2,2591,around,36.363636363636,1797,2469,0,0,,1
M20320723,0f5n1e1fbc,"Mediated JOLs",1,181,2024-04-05T20:13:51+00:00,38.63486790657,3,versionB_stim.csv,ReadVersion.csv,Read,Read2,CAKE,HAND,Study1,U,104,80,Test,User,-,,Recall,Recall2,38503,icing,22.222222222222,37776,38390,0,0,,0.151
M20320723,0f5n1e1fbc,"Mediated JOLs",1,182,2024-04-05T20:13:57+00:00,5.7933690547943,3,versionB_stim.csv,ReadVersion.csv,Read,Read2,WORD,SENTENCE,Study1,F,82,100,Test,User,-,,Recall,Recall2,5668,"alphebet ",25,2116,4579,0,0,,1
M20320723,0f5n1e1fbc,"Mediated JOLs",1,183,2024-04-05T20:14:00+00:00,3.3269989490509,3,versionB_stim.csv,ReadVersion.csv,Read,Read2,TREE,SYRUP,Study1,M,66,72,Test,User,-,,Recall,Recall2,3200,chair,20,2665,3095,0,0,,1
M20320723,0f5n1e1fbc,"Mediated JOLs",1,184,2024-04-05T20:14:03+00:00,3.0861611366272,3,versionB_stim.csv,ReadVersion.csv,Read,Read2,HORSE,WHEEL,Study1,M,69,104,Test,User,-,,Recall,Recall2,2977,ride,22.222222222222,2457,2856,0,0,,1
M20320723,0f5n1e1fbc,"Mediated JOLs",1,185,2024-04-05T20:14:06+00:00,2.3911910057068,3,versionB_stim.csv,ReadVersion.csv,Read,Read2,SOON,BELT,Study1,U,101,76,Test,User,-,,Recall,Recall2,2209,enough,20,1372,2052,0,0,,1
M20320723,0f5n1e1fbc,"Mediated JOLs",1,186,2024-04-05T20:14:08+00:00,1.9261419773102,3,versionB_stim.csv,ReadVersion.csv,Read,Read2,SIGN,TICK,Study1,U,102,79,Test,User,-,,Recall,Recall2,1794,up,0,1513,1657,0,0,,1
M20320723,0f5n1e1fbc,"Mediated JOLs",1,187,2024-04-05T20:14:14+00:00,6.0244870185852,3,versionB_stim.csv,ReadVersion.csv,Read,Read2,VEHICLE,CHARM,Study1,U,95,67,Test,User,-,,Recall,Recall2,5905,car,75,3098,5704,0,1,,1
M20320723,0f5n1e1fbc,"Mediated JOLs",1,188,2024-04-05T20:14:18+00:00,4.5295739173889,3,versionB_stim.csv,ReadVersion.csv,Read,Read2,WAR,QUIET,Study1,M,63,95,Test,User,-,,Recall,Recall2,4423,crime,40,3823,4310,0,0,,1
M20320723,0f5n1e1fbc,"Mediated JOLs",1,189,2024-04-05T20:14:21+00:00,2.6266450881958,3,versionB_stim.csv,ReadVersion.csv,Read,Read2,MEAT,KEYS,Study1,U,96,90,Test,User,-,,Recall,Recall2,2509,loaf,0,1750,2340,0,0,,1
M20320723,0f5n1e1fbc,"Mediated JOLs",1,190,2024-04-05T20:14:23+00:00,2.4006319046021,3,versionB_stim.csv,ReadVersion.csv,Read,Read2,MAZE,PHONE,Study1,U,97,86,Test,User,-,,Recall,Recall2,2277,runner,36.363636363636,1381,2117,0,0,,1
M20320723,0f5n1e1fbc,"Mediated JOLs",1,191,2024-04-05T20:14:32+00:00,8.9738039970398,3,versionB_stim.csv,ReadVersion.csv,Read,Read2,LISTEN,FICTION,Study1,U,99,75,Test,User,-,,Recall,Recall2,8868,later,16.666666666667,8188,8748,0,0,,1
M20320723,0f5n1e1fbc,"Mediated JOLs",1,192,2024-04-05T20:14:34+00:00,2.2267141342163,3,versionB_stim.csv,ReadVersion.csv,Read,Read2,AFFECTION,LOVE,Study1,F,86,73,Test,User,-,,Recall,Recall2,2112,love,100,1501,1980,1,1,,1
M20320723,0f5n1e1fbc,"Mediated JOLs",1,193,2024-04-05T20:14:40+00:00,5.6211910247803,3,versionB_stim.csv,ReadVersion.csv,Read,Read2,ORCHID,FLOWER,Study1,F,89,91,Test,User,-,,Recall,Recall2,5516,bird,20,4933,5412,0,0,,1
M20320723,0f5n1e1fbc,"Mediated JOLs",1,194,2024-04-05T20:14:49+00:00,8.8733549118042,3,versionB_stim.csv,ReadVersion.csv,Read,Read2,HARD,COTTON,Study1,M,75,93,Test,User,-,,Recall,Recall2,8764,soft,40,6100,8666,0,0,,1
M20320723,0f5n1e1fbc,"Mediated JOLs",1,195,2024-04-05T20:14:51+00:00,2.148108959198,3,versionB_stim.csv,ReadVersion.csv,Read,Read2,TEMPERATURE,MORNING,Study1,U,103,94,Test,User,-,,Recall,Recall2,2027,heat,0,1467,1906,0,0,,1
M20320723,0f5n1e1fbc,"Mediated JOLs",1,196,2024-04-05T20:15:06+00:00,14.741667985916,3,versionB_stim.csv,ReadVersion.csv,Read,Read2,FUZZY,BANG,Study1,U,105,87,Test,User,-,,Recall,Recall2,14614,fur,0,14240,14476,0,0,,1
M20320723,0f5n1e1fbc,"Mediated JOLs",1,197,2024-04-05T20:15:08+00:00,2.5773589611053,3,versionB_stim.csv,ReadVersion.csv,Read,Read2,SIP,DRINK,Study1,F,87,77,Test,User,-,,Recall,Recall2,2448,tea,0,1969,2335,0,0,,1
M20320723,0f5n1e1fbc,"Mediated JOLs",1,198,2024-04-05T20:15:14+00:00,5.925822019577,3,versionB_stim.csv,ReadVersion.csv,Read,Read2,ROOT,PLANT,Study1,F,80,92,Test,User,-,,Recall,Recall2,5807,leaf,44.444444444444,5246,5685,0,0,,1
M20320723,0f5n1e1fbc,"Mediated JOLs",1,199,2024-04-05T20:15:17+00:00,2.6791679859161,3,versionB_stim.csv,ReadVersion.csv,Read,Read2,STRETCH,CLOTH,Study1,U,92,84,Test,User,-,,Recall,Recall2,2555,marks,0,1531,2003,0,0,,1
M20320723,0f5n1e1fbc,"Mediated JOLs",1,200,2024-04-05T20:15:19+00:00,1.7123560905457,3,versionB_stim.csv,ReadVersion.csv,Read,Read2,CREDIT,CARD,Study1,F,88,69,Test,User,-,,Recall,Recall2,1587,card,100,988,1474,1,1,,1
M20320723,0f5n1e1fbc,"Mediated JOLs",1,201,2024-04-05T20:15:22+00:00,3.078136920929,3,versionB_stim.csv,ReadVersion.csv,Read,Read2,CEILING,CARPET,Study1,M,70,74,Test,User,-,,Recall,Recall2,2965,fall,20,2334,2812,0,0,,1
M20320723,0f5n1e1fbc,"Mediated JOLs",1,202,2024-04-05T20:15:25+00:00,2.7302460670471,3,versionB_stim.csv,ReadVersion.csv,Read,Read2,BEACH,BOX,Study1,M,62,71,Test,User,-,,Recall,Recall2,2608,sand,0,1824,2518,0,0,,1
M20320723,0f5n1e1fbc,"Mediated JOLs",1,203,2024-04-05T20:15:30+00:00,5.6729629039764,3,versionB_stim.csv,ReadVersion.csv,Read,Read2,CRACKLE,ELECTION,Study1,U,94,98,Test,User,-,,Recall,Recall2,5552,"barrel ",28.571428571429,4049,5255,0,0,,1
M20320723,0f5n1e1fbc,"Mediated JOLs",1,204,2024-04-05T20:15:32+00:00,2.1650280952454,3,versionB_stim.csv,ReadVersion.csv,Read,Read2,GIVE,STEAK,Study1,U,93,106,Test,User,-,,Recall,Recall2,1823,up,0,1479,1662,0,0,,1
M20320723,0f5n1e1fbc,"Mediated JOLs",1,205,2024-04-05T20:15:39+00:00,6.4579849243164,3,versionB_stim.csv,ReadVersion.csv,Read,Read2,MIRROR,MAROON,Study1,U,91,99,Test,User,-,,Recall,Recall2,6344,reflection,37.5,3704,6161,0,0,,1
M20320723,0f5n1e1fbc,"Mediated JOLs",1,206,2024-04-05T20:15:41+00:00,2.3170511722565,3,versionB_stim.csv,ReadVersion.csv,Read,Read2,SWAN,BIRD,Study1,F,81,102,Test,User,-,,Recall,Recall2,2203,lake,0,1713,2104,0,0,,1
M20320723,0f5n1e1fbc,"Mediated JOLs",1,207,2024-04-05T20:16:02+00:00,20.923923969269,3,versionB_stim.csv,ReadVersion.csv,Read,Read2,MULE,DONKEY,Study1,F,79,64,Test,User,-,,Recall,Recall2,20810,animal,16.666666666667,18811,20633,0,0,,0.279
M20320723,0f5n1e1fbc,"Mediated JOLs",1,208,2024-04-05T20:17:08+00:00,66.301851987839,3,versionB_stim.csv,ReadVersion.csv,Read,Read2,SCALP,HEAD,Study1,F,78,89,Test,User,-,,Recall,Recall2,66149,head,100,65684,66044,1,1,,0.055
M20320723,0f5n1e1fbc,"Mediated JOLs",1,209,2024-04-05T20:18:05+00:00,57.10270190239,3,versionB_stim.csv,ReadVersion.csv,Read,Read2,LION,STRIPES,Study1,M,61,81,Test,User,-,,Recall,Recall2,56945,bear,18.181818181818,56546,56858,0,0,,0.641
M20320723,0f5n1e1fbc,"Mediated JOLs",1,210,2024-04-05T20:18:10+00:00,4.3000271320343,3,versionB_stim.csv,ReadVersion.csv,Read,Read2,KEYS,ROD,Study1,U,100,70,Test,User,-,,Recall,Recall2,4166,lock,28.571428571429,3721,4021,0,0,,1
M20320723,0f5n1e1fbc,"Mediated JOLs",1,211,2024-04-05T20:18:12+00:00,1.9682488441467,3,versionB_stim.csv,ReadVersion.csv,Read,Read2,,,,,,0,Instruct,User,-,"You have completed this section. Please press Enter.",,Instruct7,1856,,,-1,-1,,,,1
M20320723,0f5n1e1fbc,"Mediated JOLs",1,212,2024-04-05T20:18:13+00:00,0.84156394004822,3,versionB_stim.csv,ReadVersion.csv,Read,Read2,,,,,,0,Instruct,User,-,"The following screen will ask you a few questions abour your experience today. You must complete these questions to receive credit.",,Instruct8,727,,,-1,-1,,,,1
