Username,ID,ExperimentName,Session,Trial,Date,TimeDif,"Condition Number","Stimuli File","Order File","Condition Description","Condition Notes",Stimuli*Cue,Stimuli*Answer,Stimuli*Shuffle,"Stimuli*Stimuli Notes",Stimuli*Value,Procedure*Item,"Procedure*Trial Type","Procedure*Max Time","Procedure*Min Time",Procedure*Text,"Procedure*Procedure Notes",Procedure*Shuffle,Response*RT,Response*Response,Response*Accuracy,Response*RTfirst,Response*RTlast,Response*strictAcc,Response*lenientAcc,Response*focus,Response*Focus
10163652TLW,6qaqg9ny6n,"Mediated JOLs",1,1,2023-09-11T16:23:54+00:00,7.6551508903503,3,versionB_stim.csv,ReadVersion.csv,Read,Read2,,,,,,0,Instruct,-,5,"In this section, you will be presented with a series of word pairs. Please study each word pair! Your memory will be tested!",Initial_Instruct,Instruct1,7510,,,-1,-1,,,,1
10163652TLW,6qaqg9ny6n,"Mediated JOLs",1,2,2023-09-11T16:23:56+00:00,1.297070980072,3,versionB_stim.csv,ReadVersion.csv,Read,Read2,,,,,,0,Instruct,User,-,"You will now begin. Press Enter when you are ready to begin.",,Instruct16,1137,,,-1,-1,,,,1
10163652TLW,6qaqg9ny6n,"Mediated JOLs",1,3,2023-09-11T16:23:59+00:00,3.0166511535645,3,versionB_stim.csv,ReadVersion.csv,Read,Read2,DAYS,WEAKS,BUFFER3,Buffer,1,2,Study,User,-,,Study/JOL,BUFFER,2770,,,-1,-1,,,,1
10163652TLW,6qaqg9ny6n,"Mediated JOLs",1,4,2023-09-11T16:24:00+00:00,1.735102891922,3,versionB_stim.csv,ReadVersion.csv,Read,Read2,MONTH,YEAR,BUFFER3,Buffer,2,4,Study,User,-,,Study/JOL,BUFFER,1544,,,-1,-1,,,,1
10163652TLW,6qaqg9ny6n,"Mediated JOLs",1,5,2023-09-11T16:24:02+00:00,1.7067890167236,3,versionB_stim.csv,ReadVersion.csv,Read,Read2,TOOL,SHED,BUFFER3,Buffer,3,3,Study,User,-,,Study/JOL,BUFFER,1538,,,-1,-1,,,,1
10163652TLW,6qaqg9ny6n,"Mediated JOLs",1,6,2023-09-11T16:24:04+00:00,1.7689349651337,3,versionB_stim.csv,ReadVersion.csv,Read,Read2,SPRING,MARCH,BUFFER3,Buffer,4,5,Study,User,-,,Study/JOL,BUFFER,1566,,,-1,-1,,,,1
10163652TLW,6qaqg9ny6n,"Mediated JOLs",1,7,2023-09-11T16:24:06+00:00,1.6387600898743,3,versionB_stim.csv,ReadVersion.csv,Read,Read2,OCTOBER,SPOOKY,BUFFER3,Buffer,5,6,Study,User,-,,Study/JOL,BUFFER,1469,,,-1,-1,,,,1
10163652TLW,6qaqg9ny6n,"Mediated JOLs",1,8,2023-09-11T16:24:08+00:00,2.252142906189,3,versionB_stim.csv,ReadVersion.csv,Read,Read2,STRONG,ACCIDENT,Study2,U,39,26,Study,User,-,,Study/JOL,"Study Phase",2061,,,-1,-1,,,,1
10163652TLW,6qaqg9ny6n,"Mediated JOLs",1,9,2023-09-11T16:24:10+00:00,1.9925169944763,3,versionB_stim.csv,ReadVersion.csv,Read,Read2,BASKET,OVEN,Study2,M,16,47,Study,User,-,,Study/JOL,"Study Phase",1728,,,-1,-1,,,,1
10163652TLW,6qaqg9ny6n,"Mediated JOLs",1,10,2023-09-11T16:24:14+00:00,3.8557341098785,3,versionB_stim.csv,ReadVersion.csv,Read,Read2,ARTERY,BRONZE,Study2,U,48,18,Study,User,-,,Study/JOL,"Study Phase",3633,,,-1,-1,,,,1
10163652TLW,6qaqg9ny6n,"Mediated JOLs",1,11,2023-09-11T16:24:16+00:00,2.1366448402405,3,versionB_stim.csv,ReadVersion.csv,Read,Read2,CASH,LEG,Study2,U,50,28,Study,User,-,,Study/JOL,"Study Phase",1843,,,-1,-1,,,,1
10163652TLW,6qaqg9ny6n,"Mediated JOLs",1,12,2023-09-11T16:24:18+00:00,2.2660541534424,3,versionB_stim.csv,ReadVersion.csv,Read,Read2,SNOW,SUMMER,Study2,M,6,37,Study,User,-,,Study/JOL,"Study Phase",2076,,,-1,-1,,,,1
10163652TLW,6qaqg9ny6n,"Mediated JOLs",1,13,2023-09-11T16:24:20+00:00,2.0738959312439,3,versionB_stim.csv,ReadVersion.csv,Read,Read2,LAWYER,NURSE,Study2,M,11,44,Study,User,-,,Study/JOL,"Study Phase",1902,,,-1,-1,,,,1
10163652TLW,6qaqg9ny6n,"Mediated JOLs",1,14,2023-09-11T16:24:22+00:00,1.5546119213104,3,versionB_stim.csv,ReadVersion.csv,Read,Read2,CHILL,COLD,Study2,F,32,46,Study,User,-,,Study/JOL,"Study Phase",1364,,,-1,-1,,,,1
10163652TLW,6qaqg9ny6n,"Mediated JOLs",1,15,2023-09-11T16:24:25+00:00,2.9413731098175,3,versionB_stim.csv,ReadVersion.csv,Read,Read2,SEED,RAKE,Study2,M,14,13,Study,User,-,,Study/JOL,"Study Phase",2734,,,-1,-1,,,,1
10163652TLW,6qaqg9ny6n,"Mediated JOLs",1,16,2023-09-11T16:24:27+00:00,1.9766719341278,3,versionB_stim.csv,ReadVersion.csv,Read,Read2,SICK,HIDE,Study2,U,45,8,Study,User,-,,Study/JOL,"Study Phase",1796,,,-1,-1,,,,1
10163652TLW,6qaqg9ny6n,"Mediated JOLs",1,17,2023-09-11T16:24:28+00:00,1.5859351158142,3,versionB_stim.csv,ReadVersion.csv,Read,Read2,ART,WOLF,Study2,U,38,36,Study,User,-,,Study/JOL,"Study Phase",1393,,,-1,-1,,,,1
10163652TLW,6qaqg9ny6n,"Mediated JOLs",1,18,2023-09-11T16:24:30+00:00,2.2459449768066,3,versionB_stim.csv,ReadVersion.csv,Read,Read2,PEAK,VALLEY,Study2,M,18,40,Study,User,-,,Study/JOL,"Study Phase",1963,,,-1,-1,,,,1
10163652TLW,6qaqg9ny6n,"Mediated JOLs",1,19,2023-09-11T16:24:34+00:00,3.1545579433441,3,versionB_stim.csv,ReadVersion.csv,Read,Read2,KNOB,WINDOW,Study2,M,19,50,Study,User,-,,Study/JOL,"Study Phase",2936,,,-1,-1,,,,1
10163652TLW,6qaqg9ny6n,"Mediated JOLs",1,20,2023-09-11T16:24:36+00:00,2.3358569145203,3,versionB_stim.csv,ReadVersion.csv,Read,Read2,MUSCLE,RAZOR,Study2,M,20,9,Study,User,-,,Study/JOL,"Study Phase",2163,,,-1,-1,,,,1
10163652TLW,6qaqg9ny6n,"Mediated JOLs",1,21,2023-09-11T16:24:38+00:00,2.029000043869,3,versionB_stim.csv,ReadVersion.csv,Read,Read2,DRINK,SOAP,Study2,M,12,34,Study,User,-,,Study/JOL,"Study Phase",1840,,,-1,-1,,,,1
10163652TLW,6qaqg9ny6n,"Mediated JOLs",1,22,2023-09-11T16:24:40+00:00,1.6973140239716,3,versionB_stim.csv,ReadVersion.csv,Read,Read2,BENCH,HORN,Study2,U,43,29,Study,User,-,,Study/JOL,"Study Phase",1519,,,-1,-1,,,,1
10163652TLW,6qaqg9ny6n,"Mediated JOLs",1,23,2023-09-11T16:24:42+00:00,1.9004640579224,3,versionB_stim.csv,ReadVersion.csv,Read,Read2,ISLAND,REALITY,Study2,M,9,16,Study,User,-,,Study/JOL,"Study Phase",1744,,,-1,-1,,,,1
10163652TLW,6qaqg9ny6n,"Mediated JOLs",1,24,2023-09-11T16:24:43+00:00,1.7051138877869,3,versionB_stim.csv,ReadVersion.csv,Read,Read2,HORNET,STING,Study2,F,30,49,Study,User,-,,Study/JOL,"Study Phase",1549,,,-1,-1,,,,1
10163652TLW,6qaqg9ny6n,"Mediated JOLs",1,25,2023-09-11T16:24:45+00:00,1.323441028595,3,versionB_stim.csv,ReadVersion.csv,Read,Read2,CACTUS,PLANT,Study2,F,21,17,Study,User,-,,Study/JOL,"Study Phase",1144,,,-1,-1,,,,1
10163652TLW,6qaqg9ny6n,"Mediated JOLs",1,26,2023-09-11T16:24:46+00:00,1.3402869701385,3,versionB_stim.csv,ReadVersion.csv,Read,Read2,DIETARY,SACK,Study2,U,42,43,Study,User,-,,Study/JOL,"Study Phase",1137,,,-1,-1,,,,1
10163652TLW,6qaqg9ny6n,"Mediated JOLs",1,27,2023-09-11T16:24:52+00:00,6.4280340671539,3,versionB_stim.csv,ReadVersion.csv,Read,Read2,CAVE,TRAP,Study2,M,15,39,Study,User,-,,Study/JOL,"Study Phase",6223,,,-1,-1,,,,1
10163652TLW,6qaqg9ny6n,"Mediated JOLs",1,28,2023-09-11T16:24:54+00:00,1.5806269645691,3,versionB_stim.csv,ReadVersion.csv,Read,Read2,HERD,COW,Study2,F,33,19,Study,User,-,,Study/JOL,"Study Phase",1345,,,-1,-1,,,,1
10163652TLW,6qaqg9ny6n,"Mediated JOLs",1,29,2023-09-11T16:24:55+00:00,1.3937029838562,3,versionB_stim.csv,ReadVersion.csv,Read,Read2,ATTIRE,CLOTHES,Study2,F,24,22,Study,User,-,,Study/JOL,"Study Phase",1221,,,-1,-1,,,,1
10163652TLW,6qaqg9ny6n,"Mediated JOLs",1,30,2023-09-11T16:24:57+00:00,1.2325370311737,3,versionB_stim.csv,ReadVersion.csv,Read,Read2,BLAZE,FIRE,Study2,F,26,10,Study,User,-,,Study/JOL,"Study Phase",1068,,,-1,-1,,,,1
10163652TLW,6qaqg9ny6n,"Mediated JOLs",1,31,2023-09-11T16:24:58+00:00,1.4315459728241,3,versionB_stim.csv,ReadVersion.csv,Read,Read2,MIRROR,CHILDREN,Study2,U,49,21,Study,User,-,,Study/JOL,"Study Phase",1185,,,-1,-1,,,,1
10163652TLW,6qaqg9ny6n,"Mediated JOLs",1,32,2023-09-11T16:25:04+00:00,6.342395067215,3,versionB_stim.csv,ReadVersion.csv,Read,Read2,LEAGUE,BASEBALL,Study2,F,29,32,Study,User,-,,Study/JOL,"Study Phase",6168,,,-1,-1,,,,1
10163652TLW,6qaqg9ny6n,"Mediated JOLs",1,33,2023-09-11T16:25:06+00:00,1.3555750846863,3,versionB_stim.csv,ReadVersion.csv,Read,Read2,CHERRY,RED,Study2,F,25,38,Study,User,-,,Study/JOL,"Study Phase",1189,,,-1,-1,,,,1
10163652TLW,6qaqg9ny6n,"Mediated JOLs",1,34,2023-09-11T16:25:07+00:00,1.5481419563293,3,versionB_stim.csv,ReadVersion.csv,Read,Read2,PUSH,CLUTTER,Study2,U,41,15,Study,User,-,,Study/JOL,"Study Phase",1358,,,-1,-1,,,,1
10163652TLW,6qaqg9ny6n,"Mediated JOLs",1,35,2023-09-11T16:25:09+00:00,1.7279088497162,3,versionB_stim.csv,ReadVersion.csv,Read,Read2,LEASE,TOIL,Study2,U,46,51,Study,User,-,,Study/JOL,"Study Phase",1565,,,-1,-1,,,,1
10163652TLW,6qaqg9ny6n,"Mediated JOLs",1,36,2023-09-11T16:25:10+00:00,1.1398420333862,3,versionB_stim.csv,ReadVersion.csv,Read,Read2,INCENSE,SMELL,Study2,F,28,23,Study,User,-,,Study/JOL,"Study Phase",967,,,-1,-1,,,,1
10163652TLW,6qaqg9ny6n,"Mediated JOLs",1,37,2023-09-11T16:25:11+00:00,0.85194396972656,3,versionB_stim.csv,ReadVersion.csv,Read,Read2,BRIDGE,WATER,Study2,F,35,41,Study,User,-,,Study/JOL,"Study Phase",579,,,-1,-1,,,,1
10163652TLW,6qaqg9ny6n,"Mediated JOLs",1,38,2023-09-11T16:25:12+00:00,1.1878969669342,3,versionB_stim.csv,ReadVersion.csv,Read,Read2,FEUD,FIGHT,Study2,F,31,11,Study,User,-,,Study/JOL,"Study Phase",984,,,-1,-1,,,,1
10163652TLW,6qaqg9ny6n,"Mediated JOLs",1,39,2023-09-11T16:25:13+00:00,1.2992150783539,3,versionB_stim.csv,ReadVersion.csv,Read,Read2,KING,VASE,Study2,U,36,45,Study,User,-,,Study/JOL,"Study Phase",1058,,,-1,-1,,,,1
10163652TLW,6qaqg9ny6n,"Mediated JOLs",1,40,2023-09-11T16:25:14+00:00,1.0446379184723,3,versionB_stim.csv,ReadVersion.csv,Read,Read2,HAPPY,CAR,Study2,U,37,20,Study,User,-,,Study/JOL,"Study Phase",874,,,-1,-1,,,,1
10163652TLW,6qaqg9ny6n,"Mediated JOLs",1,41,2023-09-11T16:25:16+00:00,1.6263542175293,3,versionB_stim.csv,ReadVersion.csv,Read,Read2,CHOP,CUT,Study2,F,22,14,Study,User,-,,Study/JOL,"Study Phase",1471,,,-1,-1,,,,1
10163652TLW,6qaqg9ny6n,"Mediated JOLs",1,42,2023-09-11T16:25:17+00:00,1.2218089103699,3,versionB_stim.csv,ReadVersion.csv,Read,Read2,SUGAR,RIDDLE,Study2,U,40,33,Study,User,-,,Study/JOL,"Study Phase",1046,,,-1,-1,,,,1
10163652TLW,6qaqg9ny6n,"Mediated JOLs",1,43,2023-09-11T16:25:19+00:00,1.2356100082397,3,versionB_stim.csv,ReadVersion.csv,Read,Read2,DOCUMENT,PAPER,Study2,F,27,35,Study,User,-,,Study/JOL,"Study Phase",1067,,,-1,-1,,,,1
10163652TLW,6qaqg9ny6n,"Mediated JOLs",1,44,2023-09-11T16:25:20+00:00,1.0564210414886,3,versionB_stim.csv,ReadVersion.csv,Read,Read2,WASP,BUG,Study2,F,34,7,Study,User,-,,Study/JOL,"Study Phase",834,,,-1,-1,,,,1
10163652TLW,6qaqg9ny6n,"Mediated JOLs",1,45,2023-09-11T16:25:21+00:00,1.0396480560303,3,versionB_stim.csv,ReadVersion.csv,Read,Read2,COLLAR,PANTS,Study2,M,8,25,Study,User,-,,Study/JOL,"Study Phase",827,,,-1,-1,,,,1
10163652TLW,6qaqg9ny6n,"Mediated JOLs",1,46,2023-09-11T16:25:22+00:00,1.2867407798767,3,versionB_stim.csv,ReadVersion.csv,Read,Read2,SMELL,EYES,Study2,M,10,42,Study,User,-,,Study/JOL,"Study Phase",1059,,,-1,-1,,,,1
10163652TLW,6qaqg9ny6n,"Mediated JOLs",1,47,2023-09-11T16:25:23+00:00,1.4940891265869,3,versionB_stim.csv,ReadVersion.csv,Read,Read2,CHISEL,HAMMER,Study2,F,23,24,Study,User,-,,Study/JOL,"Study Phase",1318,,,-1,-1,,,,1
10163652TLW,6qaqg9ny6n,"Mediated JOLs",1,48,2023-09-11T16:25:25+00:00,1.3695499897003,3,versionB_stim.csv,ReadVersion.csv,Read,Read2,DEATH,BUSINESS,Study2,U,44,12,Study,User,-,,Study/JOL,"Study Phase",1182,,,-1,-1,,,,1
10163652TLW,6qaqg9ny6n,"Mediated JOLs",1,49,2023-09-11T16:25:26+00:00,1.211030960083,3,versionB_stim.csv,ReadVersion.csv,Read,Read2,BOTH,OUNCE,Study2,U,47,31,Study,User,-,,Study/JOL,"Study Phase",994,,,-1,-1,,,,1
10163652TLW,6qaqg9ny6n,"Mediated JOLs",1,50,2023-09-11T16:25:27+00:00,1.4046049118042,3,versionB_stim.csv,ReadVersion.csv,Read,Read2,THIGH,GRILL,Study2,M,17,30,Study,User,-,,Study/JOL,"Study Phase",1239,,,-1,-1,,,,1
10163652TLW,6qaqg9ny6n,"Mediated JOLs",1,51,2023-09-11T16:25:29+00:00,1.2330260276794,3,versionB_stim.csv,ReadVersion.csv,Read,Read2,STOP,SCHOOL,Study2,M,7,27,Study,User,-,,Study/JOL,"Study Phase",1033,,,-1,-1,,,,1
10163652TLW,6qaqg9ny6n,"Mediated JOLs",1,52,2023-09-11T16:25:31+00:00,1.9481091499329,3,versionB_stim.csv,ReadVersion.csv,Read,Read2,FEATHER,HEAVY,Study2,M,13,48,Study,User,-,,Study/JOL,"Study Phase",1756,,,-1,-1,,,,1
10163652TLW,6qaqg9ny6n,"Mediated JOLs",1,53,2023-09-11T16:25:32+00:00,1.2042260169983,3,versionB_stim.csv,ReadVersion.csv,Read,Read2,SHERRIF,POLICE,BUFFER2,Buffer,107,110,Study,User,-,,Study/JOL,BUFFER2,1009,,,-1,-1,,,,1
10163652TLW,6qaqg9ny6n,"Mediated JOLs",1,54,2023-09-11T16:25:33+00:00,1.5589089393616,3,versionB_stim.csv,ReadVersion.csv,Read,Read2,SCARE,FRIGHT,BUFFER1,Buffer,59,57,Study,User,-,,Study/JOL,BUFFER2,1301,,,-1,-1,,,,1
10163652TLW,6qaqg9ny6n,"Mediated JOLs",1,55,2023-09-11T16:25:35+00:00,1.4679439067841,3,versionB_stim.csv,ReadVersion.csv,Read,Read2,PITCHER,CATCHER,BUFFER1,Buffer,57,61,Study,User,-,,Study/JOL,BUFFER2,1282,,,-1,-1,,,,1
10163652TLW,6qaqg9ny6n,"Mediated JOLs",1,56,2023-09-11T16:25:36+00:00,1.1502730846405,3,versionB_stim.csv,ReadVersion.csv,Read,Read2,CARROT,POTATO,BUFFER4,Buffer,51,53,Study,User,-,,Study/JOL,BUFFER2,1004,,,-1,-1,,,,1
10163652TLW,6qaqg9ny6n,"Mediated JOLs",1,57,2023-09-11T16:25:37+00:00,1.4158010482788,3,versionB_stim.csv,ReadVersion.csv,Read,Read2,SHRIMP,FISH,BUFFER4,Buffer,53,56,Study,User,-,,Study/JOL,BUFFER2,1198,,,-1,-1,,,,1
10163652TLW,6qaqg9ny6n,"Mediated JOLs",1,58,2023-09-11T16:25:39+00:00,1.7998540401459,3,versionB_stim.csv,ReadVersion.csv,Read,Read2,,,,,,0,Instruct,User,-,"You have completed this section. Please press Enter.",Filler_Instruction,Instruct2,1592,,,-1,-1,,,,1
10163652TLW,6qaqg9ny6n,"Mediated JOLs",1,59,2023-09-11T16:27:40+00:00,120.75519394875,3,versionB_stim.csv,ReadVersion.csv,Read,Read2,,,,,,0,FreeRecall,120,120,"Please list the 50 US states in alphabetical order. The task will automatically advance to the next screen after two minutes.",,Filler1,120001,"Alamaba Alska Arizona arkansa california colorado connetcuit delaware florida georgia hawaii idaho illinois indiana iwoa kanasa kenkucy louisiana maine marlyland michagan mississippi minastoa missuri new hamp",0,7895,118894,0,0,,1
10163652TLW,6qaqg9ny6n,"Mediated JOLs",1,60,2023-09-11T16:27:51+00:00,10.95686006546,3,versionB_stim.csv,ReadVersion.csv,Read,Read2,,,,,,0,Instruct,-,10,"You will now be presented with the first word from each of the previously studied item pairs. Please type the missing word. If you do not know the word, you may guess or press Enter to skip forward to the next pair.",,Instruct3,10786,,,-1,-1,,,,1
10163652TLW,6qaqg9ny6n,"Mediated JOLs",1,61,2023-09-11T16:27:55+00:00,4.5381588935852,3,versionB_stim.csv,ReadVersion.csv,Read,Read2,SMELL,EYES,Study2,M,10,42,Test,User,-,,Recall,Recall1,4354,taste,22.222222222222,1428,2022,0,0,,1
10163652TLW,6qaqg9ny6n,"Mediated JOLs",1,62,2023-09-11T16:28:02+00:00,6.5418400764465,3,versionB_stim.csv,ReadVersion.csv,Read,Read2,ISLAND,REALITY,Study2,M,9,16,Test,User,-,,Recall,Recall1,6264,crowd,16.666666666667,4497,5377,0,0,,1
10163652TLW,6qaqg9ny6n,"Mediated JOLs",1,63,2023-09-11T16:28:07+00:00,5.203675031662,3,versionB_stim.csv,ReadVersion.csv,Read,Read2,CHOP,CUT,Study2,F,22,14,Test,User,-,,Recall,Recall1,5034,knife,0,1812,4095,0,0,,1
10163652TLW,6qaqg9ny6n,"Mediated JOLs",1,64,2023-09-11T16:28:11+00:00,4.2144129276276,3,versionB_stim.csv,ReadVersion.csv,Read,Read2,HORNET,STING,Study2,F,30,49,Test,User,-,,Recall,Recall1,4037,skull,20,2172,2921,0,0,,1
10163652TLW,6qaqg9ny6n,"Mediated JOLs",1,65,2023-09-11T16:28:16+00:00,4.5227799415588,3,versionB_stim.csv,ReadVersion.csv,Read,Read2,CHISEL,HAMMER,Study2,F,23,24,Test,User,-,,Recall,Recall1,4295,tap,22.222222222222,2621,3192,0,0,,1
10163652TLW,6qaqg9ny6n,"Mediated JOLs",1,66,2023-09-11T16:28:22+00:00,6.4375541210175,3,versionB_stim.csv,ReadVersion.csv,Read,Read2,STOP,SCHOOL,Study2,M,7,27,Test,User,-,,Recall,Recall1,6245,guess,18.181818181818,3582,5259,0,0,,1
10163652TLW,6qaqg9ny6n,"Mediated JOLs",1,67,2023-09-11T16:28:28+00:00,5.4642980098724,3,versionB_stim.csv,ReadVersion.csv,Read,Read2,BLAZE,FIRE,Study2,F,26,10,Test,User,-,,Recall,Recall1,5299,burn,25,3645,4243,0,0,,1
10163652TLW,6qaqg9ny6n,"Mediated JOLs",1,68,2023-09-11T16:28:33+00:00,5.2243468761444,3,versionB_stim.csv,ReadVersion.csv,Read,Read2,DIETARY,SACK,Study2,U,42,43,Test,User,-,,Recall,Recall1,5040,guess,22.222222222222,3511,4213,0,0,,1
10163652TLW,6qaqg9ny6n,"Mediated JOLs",1,69,2023-09-11T16:28:53+00:00,19.749964952469,3,versionB_stim.csv,ReadVersion.csv,Read,Read2,STRONG,ACCIDENT,Study2,U,39,26,Test,User,-,,Recall,Recall1,19551,accdident,94.117647058824,3832,18367,0,1,,1
10163652TLW,6qaqg9ny6n,"Mediated JOLs",1,70,2023-09-11T16:29:05+00:00,11.774379014969,3,versionB_stim.csv,ReadVersion.csv,Read,Read2,ARTERY,BRONZE,Study2,U,48,18,Test,User,-,,Recall,Recall1,11596,gold,20,10138,10575,0,0,,1
10163652TLW,6qaqg9ny6n,"Mediated JOLs",1,71,2023-09-11T16:29:09+00:00,4.4498550891876,3,versionB_stim.csv,ReadVersion.csv,Read,Read2,DOCUMENT,PAPER,Study2,F,27,35,Test,User,-,,Recall,Recall1,4100,guess,20,2512,3234,0,0,,1
10163652TLW,6qaqg9ny6n,"Mediated JOLs",1,72,2023-09-11T16:29:13+00:00,4.1906759738922,3,versionB_stim.csv,ReadVersion.csv,Read,Read2,WASP,BUG,Study2,F,34,7,Test,User,-,,Recall,Recall1,3842,sting,25,1459,2799,0,0,,1
10163652TLW,6qaqg9ny6n,"Mediated JOLs",1,73,2023-09-11T16:29:17+00:00,3.3790650367737,3,versionB_stim.csv,ReadVersion.csv,Read,Read2,FEATHER,HEAVY,Study2,M,13,48,Test,User,-,,Recall,Recall1,3183,heavy,100,1385,2078,1,1,,1
10163652TLW,6qaqg9ny6n,"Mediated JOLs",1,74,2023-09-11T16:29:20+00:00,3.5148260593414,3,versionB_stim.csv,ReadVersion.csv,Read,Read2,LEAGUE,BASEBALL,Study2,F,29,32,Test,User,-,,Recall,Recall1,3235,little,28.571428571429,1258,2294,0,0,,1
10163652TLW,6qaqg9ny6n,"Mediated JOLs",1,75,2023-09-11T16:29:24+00:00,3.4065668582916,3,versionB_stim.csv,ReadVersion.csv,Read,Read2,SUGAR,RIDDLE,Study2,U,40,33,Test,User,-,,Recall,Recall1,3236,guess,18.181818181818,1711,2431,0,0,,1
10163652TLW,6qaqg9ny6n,"Mediated JOLs",1,76,2023-09-11T16:29:27+00:00,3.7964470386505,3,versionB_stim.csv,ReadVersion.csv,Read,Read2,HERD,COW,Study2,F,33,19,Test,User,-,,Recall,Recall1,3475,cattle,22.222222222222,1531,2474,0,0,,1
10163652TLW,6qaqg9ny6n,"Mediated JOLs",1,77,2023-09-11T16:29:33+00:00,5.2159268856049,3,versionB_stim.csv,ReadVersion.csv,Read,Read2,HAPPY,CAR,Study2,U,37,20,Test,User,-,,Recall,Recall1,4893,guess,0,3472,4158,0,0,,1
10163652TLW,6qaqg9ny6n,"Mediated JOLs",1,78,2023-09-11T16:29:36+00:00,3.4188311100006,3,versionB_stim.csv,ReadVersion.csv,Read,Read2,SEED,RAKE,Study2,M,14,13,Test,User,-,,Recall,Recall1,3247,guess,22.222222222222,1393,2119,0,0,,1
10163652TLW,6qaqg9ny6n,"Mediated JOLs",1,79,2023-09-11T16:29:41+00:00,4.6057100296021,3,versionB_stim.csv,ReadVersion.csv,Read,Read2,THIGH,GRILL,Study2,M,17,30,Test,User,-,,Recall,Recall1,4419,burn,22.222222222222,2822,3366,0,0,,1
10163652TLW,6qaqg9ny6n,"Mediated JOLs",1,80,2023-09-11T16:29:43+00:00,2.7180018424988,3,versionB_stim.csv,ReadVersion.csv,Read,Read2,LEASE,TOIL,Study2,U,46,51,Test,User,-,,Recall,Recall1,2550,guess,0,1644,2346,0,0,,1
10163652TLW,6qaqg9ny6n,"Mediated JOLs",1,81,2023-09-11T16:29:48+00:00,4.5536470413208,3,versionB_stim.csv,ReadVersion.csv,Read,Read2,BOTH,OUNCE,Study2,U,47,31,Test,User,-,,Recall,Recall1,4257,chicken,33.333333333333,2921,3808,0,0,,1
10163652TLW,6qaqg9ny6n,"Mediated JOLs",1,82,2023-09-11T16:29:51+00:00,3.4333310127258,3,versionB_stim.csv,ReadVersion.csv,Read,Read2,LAWYER,NURSE,Study2,M,11,44,Test,User,-,,Recall,Recall1,3255,guess,40,2328,3074,0,0,,1
10163652TLW,6qaqg9ny6n,"Mediated JOLs",1,83,2023-09-11T16:29:57+00:00,5.8263671398163,3,versionB_stim.csv,ReadVersion.csv,Read,Read2,SICK,HIDE,Study2,U,45,8,Test,User,-,,Recall,Recall1,5575,hide,100,2001,5403,1,1,,1
10163652TLW,6qaqg9ny6n,"Mediated JOLs",1,84,2023-09-11T16:29:59+00:00,2.0498900413513,3,versionB_stim.csv,ReadVersion.csv,Read,Read2,CHERRY,RED,Study2,F,25,38,Test,User,-,,Recall,Recall1,1755,red,100,1102,1526,1,1,,1
10163652TLW,6qaqg9ny6n,"Mediated JOLs",1,85,2023-09-11T16:30:05+00:00,6.2636878490448,3,versionB_stim.csv,ReadVersion.csv,Read,Read2,DEATH,BUSINESS,Study2,U,44,12,Test,User,-,,Recall,Recall1,5985,business,100,1817,5690,1,1,,1
10163652TLW,6qaqg9ny6n,"Mediated JOLs",1,86,2023-09-11T16:30:10+00:00,4.9373199939728,3,versionB_stim.csv,ReadVersion.csv,Read,Read2,CHILL,COLD,Study2,F,32,46,Test,User,-,,Recall,Recall1,4620,guess,0,3672,4455,0,0,,1
10163652TLW,6qaqg9ny6n,"Mediated JOLs",1,87,2023-09-11T16:30:13+00:00,3.0526969432831,3,versionB_stim.csv,ReadVersion.csv,Read,Read2,BRIDGE,WATER,Study2,F,35,41,Test,User,-,,Recall,Recall1,2874,guess,20,1768,2644,0,0,,1
10163652TLW,6qaqg9ny6n,"Mediated JOLs",1,88,2023-09-11T16:30:16+00:00,2.9489331245422,3,versionB_stim.csv,ReadVersion.csv,Read,Read2,BASKET,OVEN,Study2,M,16,47,Test,User,-,,Recall,Recall1,2387,oven,100,1633,2179,1,1,,1
10163652TLW,6qaqg9ny6n,"Mediated JOLs",1,89,2023-09-11T16:30:19+00:00,2.9708540439606,3,versionB_stim.csv,ReadVersion.csv,Read,Read2,MUSCLE,RAZOR,Study2,M,20,9,Test,User,-,,Recall,Recall1,2397,cut,0,1924,2243,0,0,,1
10163652TLW,6qaqg9ny6n,"Mediated JOLs",1,90,2023-09-11T16:30:23+00:00,3.9194388389587,3,versionB_stim.csv,ReadVersion.csv,Read,Read2,ATTIRE,CLOTHES,Study2,F,24,22,Test,User,-,,Recall,Recall1,3662,dress,33.333333333333,1316,3414,0,0,,1
10163652TLW,6qaqg9ny6n,"Mediated JOLs",1,91,2023-09-11T16:30:27+00:00,3.6016640663147,3,versionB_stim.csv,ReadVersion.csv,Read,Read2,BENCH,HORN,Study2,U,43,29,Test,User,-,,Recall,Recall1,3004,guess,0,2119,2858,0,0,,1
10163652TLW,6qaqg9ny6n,"Mediated JOLs",1,92,2023-09-11T16:30:30+00:00,3.36092710495,3,versionB_stim.csv,ReadVersion.csv,Read,Read2,KING,VASE,Study2,U,36,45,Test,User,-,,Recall,Recall1,2794,guess,22.222222222222,1713,2540,0,0,,1
10163652TLW,6qaqg9ny6n,"Mediated JOLs",1,93,2023-09-11T16:30:33+00:00,3.1629338264465,3,versionB_stim.csv,ReadVersion.csv,Read,Read2,SNOW,SUMMER,Study2,M,6,37,Test,User,-,,Recall,Recall1,2991,guess,36.363636363636,2079,2796,0,0,,1
10163652TLW,6qaqg9ny6n,"Mediated JOLs",1,94,2023-09-11T16:30:36+00:00,2.7815520763397,3,versionB_stim.csv,ReadVersion.csv,Read,Read2,MIRROR,CHILDREN,Study2,U,49,21,Test,User,-,,Recall,Recall1,2586,child,76.923076923077,1660,2342,0,1,,1
10163652TLW,6qaqg9ny6n,"Mediated JOLs",1,95,2023-09-11T16:30:39+00:00,3.1144609451294,3,versionB_stim.csv,ReadVersion.csv,Read,Read2,CAVE,TRAP,Study2,M,15,39,Test,User,-,,Recall,Recall1,2919,trap,100,1964,2593,1,1,,1
10163652TLW,6qaqg9ny6n,"Mediated JOLs",1,96,2023-09-11T16:30:43+00:00,4.2243759632111,3,versionB_stim.csv,ReadVersion.csv,Read,Read2,CACTUS,PLANT,Study2,F,21,17,Test,User,-,,Recall,Recall1,4045,guess,0,1102,3850,0,0,,1
10163652TLW,6qaqg9ny6n,"Mediated JOLs",1,97,2023-09-11T16:30:46+00:00,2.2152841091156,3,versionB_stim.csv,ReadVersion.csv,Read,Read2,PUSH,CLUTTER,Study2,U,41,15,Test,User,-,,Recall,Recall1,1972,guess,33.333333333333,1087,1797,0,0,,1
10163652TLW,6qaqg9ny6n,"Mediated JOLs",1,98,2023-09-11T16:30:50+00:00,4.4124939441681,3,versionB_stim.csv,ReadVersion.csv,Read,Read2,PEAK,VALLEY,Study2,M,18,40,Test,User,-,,Recall,Recall1,4068,valley,100,2728,3746,1,1,,1
10163652TLW,6qaqg9ny6n,"Mediated JOLs",1,99,2023-09-11T16:30:54+00:00,3.7993559837341,3,versionB_stim.csv,ReadVersion.csv,Read,Read2,ART,WOLF,Study2,U,38,36,Test,User,-,,Recall,Recall1,3591,gold,50,2968,3485,0,0,,1
10163652TLW,6qaqg9ny6n,"Mediated JOLs",1,100,2023-09-11T16:30:56+00:00,2.5264310836792,3,versionB_stim.csv,ReadVersion.csv,Read,Read2,DRINK,SOAP,Study2,M,12,34,Test,User,-,,Recall,Recall1,2326,guess,22.222222222222,1333,2132,0,0,,1
10163652TLW,6qaqg9ny6n,"Mediated JOLs",1,101,2023-09-11T16:31:00+00:00,3.7610969543457,3,versionB_stim.csv,ReadVersion.csv,Read,Read2,CASH,LEG,Study2,U,50,28,Test,User,-,,Recall,Recall1,3596,leg,100,2948,3389,1,1,,1
10163652TLW,6qaqg9ny6n,"Mediated JOLs",1,102,2023-09-11T16:31:03+00:00,2.9347541332245,3,versionB_stim.csv,ReadVersion.csv,Read,Read2,FEUD,FIGHT,Study2,F,31,11,Test,User,-,,Recall,Recall1,2750,fight,100,1917,2526,1,1,,1
10163652TLW,6qaqg9ny6n,"Mediated JOLs",1,103,2023-09-11T16:31:06+00:00,2.4171929359436,3,versionB_stim.csv,ReadVersion.csv,Read,Read2,COLLAR,PANTS,Study2,M,8,25,Test,User,-,,Recall,Recall1,2092,guess,20,1186,1905,0,0,,1
10163652TLW,6qaqg9ny6n,"Mediated JOLs",1,104,2023-09-11T16:31:09+00:00,3.3739838600159,3,versionB_stim.csv,ReadVersion.csv,Read,Read2,KNOB,WINDOW,Study2,M,19,50,Test,User,-,,Recall,Recall1,3205,turn,20,2610,3011,0,0,,1
10163652TLW,6qaqg9ny6n,"Mediated JOLs",1,105,2023-09-11T16:31:13+00:00,4.1767590045929,3,versionB_stim.csv,ReadVersion.csv,Read,Read2,INCENSE,SMELL,Study2,F,28,23,Test,User,-,,Recall,Recall1,3824,guess,20,2983,3683,0,0,,1
10163652TLW,6qaqg9ny6n,"Mediated JOLs",1,106,2023-09-11T16:32:12+00:00,58.818785190582,3,versionB_stim.csv,ReadVersion.csv,Read,Read2,,,,,,0,Instruct,-,10,"You will now be presented with a new set of word pairs. Please study each pair. Remember that your memory will be tested! When finished, press Enter to move to the next pair.",Initial_Instruct,Instruct4,57994,,,-1,-1,,,,1
10163652TLW,6qaqg9ny6n,"Mediated JOLs",1,107,2023-09-11T16:32:13+00:00,1.4197609424591,3,versionB_stim.csv,ReadVersion.csv,Read,Read2,,,,,,0,Instruct,User,-,"Press Enter when you are readty to begin",,Instruct11,1242,,,-1,-1,,,,1
10163652TLW,6qaqg9ny6n,"Mediated JOLs",1,108,2023-09-11T16:32:15+00:00,2.0874679088593,3,versionB_stim.csv,ReadVersion.csv,Read,Read2,GEESE,GOOSE,BUFFER2,Buffer,106,108,Study,User,-,,Study/JOL,BUFFER2,1933,,,-1,-1,,,,1
10163652TLW,6qaqg9ny6n,"Mediated JOLs",1,109,2023-09-11T16:32:18+00:00,2.4814391136169,3,versionB_stim.csv,ReadVersion.csv,Read,Read2,TREES,GREEN,BUFFER1,Buffer,56,58,Study,User,-,,Study/JOL,BUFFER2,1794,,,-1,-1,,,,1
10163652TLW,6qaqg9ny6n,"Mediated JOLs",1,110,2023-09-11T16:32:19+00:00,1.5603778362274,3,versionB_stim.csv,ReadVersion.csv,Read,Read2,SPACE,JAM,BUFFER1,Buffer,60,60,Study,User,-,,Study/JOL,BUFFER2,1305,,,-1,-1,,,,1
10163652TLW,6qaqg9ny6n,"Mediated JOLs",1,111,2023-09-11T16:32:22+00:00,2.3639562129974,3,versionB_stim.csv,ReadVersion.csv,Read,Read2,MOON,SPACE,BUFFER2,Buffer,109,111,Study,User,-,,Study/JOL,BUFFER2,1682,,,-1,-1,,,,1
10163652TLW,6qaqg9ny6n,"Mediated JOLs",1,112,2023-09-11T16:32:24+00:00,2.3533389568329,3,versionB_stim.csv,ReadVersion.csv,Read,Read2,MALT,CHOCOLATE,BUFFER2,Buffer,108,107,Study,User,-,,Study/JOL,BUFFER2,2050,,,-1,-1,,,,1
10163652TLW,6qaqg9ny6n,"Mediated JOLs",1,113,2023-09-11T16:32:26+00:00,1.927659034729,3,versionB_stim.csv,ReadVersion.csv,Read,Read2,WORD,SENTENCE,Study1,F,82,88,Study,User,-,,Study/JOL,"Study Phase2",1703,,,-1,-1,,,,1
10163652TLW,6qaqg9ny6n,"Mediated JOLs",1,114,2023-09-11T16:32:34+00:00,8.1781089305878,3,versionB_stim.csv,ReadVersion.csv,Read,Read2,SIP,DRINK,Study1,F,87,97,Study,User,-,,Study/JOL,"Study Phase2",7896,,,-1,-1,,,,1
10163652TLW,6qaqg9ny6n,"Mediated JOLs",1,115,2023-09-11T16:32:35+00:00,1.1090250015259,3,versionB_stim.csv,ReadVersion.csv,Read,Read2,ORCHID,FLOWER,Study1,F,89,89,Study,User,-,,Study/JOL,"Study Phase2",919,,,-1,-1,,,,1
10163652TLW,6qaqg9ny6n,"Mediated JOLs",1,116,2023-09-11T16:32:37+00:00,1.1281628608704,3,versionB_stim.csv,ReadVersion.csv,Read,Read2,LITTER,TRASH,Study1,F,76,81,Study,User,-,,Study/JOL,"Study Phase2",936,,,-1,-1,,,,1
10163652TLW,6qaqg9ny6n,"Mediated JOLs",1,117,2023-09-11T16:32:38+00:00,1.1955151557922,3,versionB_stim.csv,ReadVersion.csv,Read,Read2,QUIET,WAR,Study1,M,63,79,Study,User,-,,Study/JOL,"Study Phase2",1035,,,-1,-1,,,,1
10163652TLW,6qaqg9ny6n,"Mediated JOLs",1,118,2023-09-11T16:32:39+00:00,1.1224629878998,3,versionB_stim.csv,ReadVersion.csv,Read,Read2,COTTON,HARD,Study1,M,75,80,Study,User,-,,Study/JOL,"Study Phase2",938,,,-1,-1,,,,1
10163652TLW,6qaqg9ny6n,"Mediated JOLs",1,119,2023-09-11T16:32:41+00:00,1.989590883255,3,versionB_stim.csv,ReadVersion.csv,Read,Read2,KEYS,ROD,Study1,U,100,65,Study,User,-,,Study/JOL,"Study Phase2",1809,,,-1,-1,,,,1
10163652TLW,6qaqg9ny6n,"Mediated JOLs",1,120,2023-09-11T16:32:42+00:00,1.317430973053,3,versionB_stim.csv,ReadVersion.csv,Read,Read2,CARPET,CEILING,Study1,M,70,85,Study,User,-,,Study/JOL,"Study Phase2",1144,,,-1,-1,,,,1
10163652TLW,6qaqg9ny6n,"Mediated JOLs",1,121,2023-09-11T16:32:44+00:00,1.3817751407623,3,versionB_stim.csv,ReadVersion.csv,Read,Read2,GIVE,STEAK,Study1,U,93,102,Study,User,-,,Study/JOL,"Study Phase2",1211,,,-1,-1,,,,1
10163652TLW,6qaqg9ny6n,"Mediated JOLs",1,122,2023-09-11T16:32:45+00:00,1.2359480857849,3,versionB_stim.csv,ReadVersion.csv,Read,Read2,FINGER,WEDDING,Study1,M,72,70,Study,User,-,,Study/JOL,"Study Phase2",1065,,,-1,-1,,,,1
10163652TLW,6qaqg9ny6n,"Mediated JOLs",1,123,2023-09-11T16:32:47+00:00,2.5641498565674,3,versionB_stim.csv,ReadVersion.csv,Read,Read2,CRACKLE,ELECTION,Study1,U,94,76,Study,User,-,,Study/JOL,"Study Phase2",2365,,,-1,-1,,,,1
10163652TLW,6qaqg9ny6n,"Mediated JOLs",1,124,2023-09-11T16:32:49+00:00,1.2111990451813,3,versionB_stim.csv,ReadVersion.csv,Read,Read2,STRIPES,LION,Study1,M,61,104,Study,User,-,,Study/JOL,"Study Phase2",1010,,,-1,-1,,,,1
10163652TLW,6qaqg9ny6n,"Mediated JOLs",1,125,2023-09-11T16:32:50+00:00,1.3569540977478,3,versionB_stim.csv,ReadVersion.csv,Read,Read2,WHEEL,HORSE,Study1,M,69,99,Study,User,-,,Study/JOL,"Study Phase2",1103,,,-1,-1,,,,1
10163652TLW,6qaqg9ny6n,"Mediated JOLs",1,126,2023-09-11T16:32:52+00:00,1.9418959617615,3,versionB_stim.csv,ReadVersion.csv,Read,Read2,SCALP,HEAD,Study1,F,78,94,Study,User,-,,Study/JOL,"Study Phase2",1741,,,-1,-1,,,,1
10163652TLW,6qaqg9ny6n,"Mediated JOLs",1,127,2023-09-11T16:32:54+00:00,1.9217908382416,3,versionB_stim.csv,ReadVersion.csv,Read,Read2,DANCE,CIRCLE,Study1,M,68,86,Study,User,-,,Study/JOL,"Study Phase2",1729,,,-1,-1,,,,1
10163652TLW,6qaqg9ny6n,"Mediated JOLs",1,128,2023-09-11T16:32:55+00:00,1.0878520011902,3,versionB_stim.csv,ReadVersion.csv,Read,Read2,HAIR,TOOTH,Study1,M,74,95,Study,User,-,,Study/JOL,"Study Phase2",775,,,-1,-1,,,,1
10163652TLW,6qaqg9ny6n,"Mediated JOLs",1,129,2023-09-11T16:32:56+00:00,1.1748220920563,3,versionB_stim.csv,ReadVersion.csv,Read,Read2,MULE,DONKEY,Study1,F,79,92,Study,User,-,,Study/JOL,"Study Phase2",922,,,-1,-1,,,,1
10163652TLW,6qaqg9ny6n,"Mediated JOLs",1,130,2023-09-11T16:32:57+00:00,1.1489698886871,3,versionB_stim.csv,ReadVersion.csv,Read,Read2,SWAN,BIRD,Study1,F,81,75,Study,User,-,,Study/JOL,"Study Phase2",986,,,-1,-1,,,,1
10163652TLW,6qaqg9ny6n,"Mediated JOLs",1,131,2023-09-11T16:32:59+00:00,1.999566078186,3,versionB_stim.csv,ReadVersion.csv,Read,Read2,VEHICLE,CHARM,Study1,U,95,101,Study,User,-,,Study/JOL,"Study Phase2",1777,,,-1,-1,,,,1
10163652TLW,6qaqg9ny6n,"Mediated JOLs",1,132,2023-09-11T16:33:06+00:00,6.5838069915771,3,versionB_stim.csv,ReadVersion.csv,Read,Read2,LISTEN,FICTION,Study1,U,99,82,Study,User,-,,Study/JOL,"Study Phase2",6415,,,-1,-1,,,,1
10163652TLW,6qaqg9ny6n,"Mediated JOLs",1,133,2023-09-11T16:33:07+00:00,0.89529991149902,3,versionB_stim.csv,ReadVersion.csv,Read,Read2,NAP,SLEEP,Study1,F,84,69,Study,User,-,,Study/JOL,"Study Phase2",726,,,-1,-1,,,,1
10163652TLW,6qaqg9ny6n,"Mediated JOLs",1,134,2023-09-11T16:33:08+00:00,0.9147961139679,3,versionB_stim.csv,ReadVersion.csv,Read,Read2,SOON,BELT,Study1,U,101,74,Study,User,-,,Study/JOL,"Study Phase2",685,,,-1,-1,,,,1
10163652TLW,6qaqg9ny6n,"Mediated JOLs",1,135,2023-09-11T16:33:09+00:00,0.94622492790222,3,versionB_stim.csv,ReadVersion.csv,Read,Read2,BOTTLE,CRY,Study1,M,71,83,Study,User,-,,Study/JOL,"Study Phase2",776,,,-1,-1,,,,1
10163652TLW,6qaqg9ny6n,"Mediated JOLs",1,136,2023-09-11T16:33:10+00:00,1.8058390617371,3,versionB_stim.csv,ReadVersion.csv,Read,Read2,MIRROR,MAROON,Study1,U,91,91,Study,User,-,,Study/JOL,"Study Phase2",1510,,,-1,-1,,,,1
10163652TLW,6qaqg9ny6n,"Mediated JOLs",1,137,2023-09-11T16:33:13+00:00,2.5738561153412,3,versionB_stim.csv,ReadVersion.csv,Read,Read2,WAGE,MONEY,Study1,F,77,73,Study,User,-,,Study/JOL,"Study Phase2",2403,,,-1,-1,,,,1
10163652TLW,6qaqg9ny6n,"Mediated JOLs",1,138,2023-09-11T16:33:17+00:00,4.3166959285736,3,versionB_stim.csv,ReadVersion.csv,Read,Read2,SILK,ROUGH,Study1,M,65,71,Study,User,-,,Study/JOL,"Study Phase2",4136,,,-1,-1,,,,1
10163652TLW,6qaqg9ny6n,"Mediated JOLs",1,139,2023-09-11T16:33:18+00:00,0.87448906898499,3,versionB_stim.csv,ReadVersion.csv,Read,Read2,SYRUP,TREE,Study1,M,66,77,Study,User,-,,Study/JOL,"Study Phase2",711,,,-1,-1,,,,1
10163652TLW,6qaqg9ny6n,"Mediated JOLs",1,140,2023-09-11T16:33:20+00:00,2.058424949646,3,versionB_stim.csv,ReadVersion.csv,Read,Read2,TEMPERATURE,MORNING,Study1,U,103,105,Study,User,-,,Study/JOL,"Study Phase2",1796,,,-1,-1,,,,1
10163652TLW,6qaqg9ny6n,"Mediated JOLs",1,141,2023-09-11T16:33:21+00:00,0.58661484718323,3,versionB_stim.csv,ReadVersion.csv,Read,Read2,SHELL,SHAKE,Study1,U,98,64,Study,User,-,,Study/JOL,"Study Phase2",406,,,-1,-1,,,,1
10163652TLW,6qaqg9ny6n,"Mediated JOLs",1,142,2023-09-11T16:33:21+00:00,0.46619009971619,3,versionB_stim.csv,ReadVersion.csv,Read,Read2,AFFECTION,LOVE,Study1,F,86,106,Study,User,-,,Study/JOL,"Study Phase2",265,,,-1,-1,,,,1
10163652TLW,6qaqg9ny6n,"Mediated JOLs",1,143,2023-09-11T16:33:22+00:00,0.37943291664124,3,versionB_stim.csv,ReadVersion.csv,Read,Read2,MAZE,PHONE,Study1,U,97,63,Study,User,-,,Study/JOL,"Study Phase2",207,,,-1,-1,,,,1
10163652TLW,6qaqg9ny6n,"Mediated JOLs",1,144,2023-09-11T16:33:22+00:00,0.46890711784363,3,versionB_stim.csv,ReadVersion.csv,Read,Read2,FUZZY,BANG,Study1,U,105,72,Study,User,-,,Study/JOL,"Study Phase2",310,,,-1,-1,,,,1
10163652TLW,6qaqg9ny6n,"Mediated JOLs",1,145,2023-09-11T16:33:23+00:00,0.52582097053528,3,versionB_stim.csv,ReadVersion.csv,Read,Read2,BOX,BEACH,Study1,M,62,66,Study,User,-,,Study/JOL,"Study Phase2",274,,,-1,-1,,,,1
10163652TLW,6qaqg9ny6n,"Mediated JOLs",1,146,2023-09-11T16:33:23+00:00,0.46969389915466,3,versionB_stim.csv,ReadVersion.csv,Read,Read2,STRETCH,CLOTH,Study1,U,92,67,Study,User,-,,Study/JOL,"Study Phase2",287,,,-1,-1,,,,1
10163652TLW,6qaqg9ny6n,"Mediated JOLs",1,147,2023-09-11T16:33:24+00:00,0.4893491268158,3,versionB_stim.csv,ReadVersion.csv,Read,Read2,MULE,DONKEY,Study1,F,85,62,Study,User,-,,Study/JOL,"Study Phase2",291,,,-1,-1,,,,1
10163652TLW,6qaqg9ny6n,"Mediated JOLs",1,148,2023-09-11T16:33:24+00:00,0.52436304092407,3,versionB_stim.csv,ReadVersion.csv,Read,Read2,BOUNCE,BAT,Study1,M,67,90,Study,User,-,,Study/JOL,"Study Phase2",357,,,-1,-1,,,,1
10163652TLW,6qaqg9ny6n,"Mediated JOLs",1,149,2023-09-11T16:33:25+00:00,0.4953830242157,3,versionB_stim.csv,ReadVersion.csv,Read,Read2,SIGN,TICK,Study1,U,102,87,Study,User,-,,Study/JOL,"Study Phase2",301,,,-1,-1,,,,1
10163652TLW,6qaqg9ny6n,"Mediated JOLs",1,150,2023-09-11T16:33:25+00:00,0.64167094230652,3,versionB_stim.csv,ReadVersion.csv,Read,Read2,TUNA,FISH,Study1,F,90,100,Study,User,-,,Study/JOL,"Study Phase2",288,,,-1,-1,,,,1
10163652TLW,6qaqg9ny6n,"Mediated JOLs",1,151,2023-09-11T16:33:26+00:00,0.52277898788452,3,versionB_stim.csv,ReadVersion.csv,Read,Read2,HYGIENE,CLEAN,Study1,F,83,103,Study,User,-,,Study/JOL,"Study Phase2",282,,,-1,-1,,,,1
10163652TLW,6qaqg9ny6n,"Mediated JOLs",1,152,2023-09-11T16:33:26+00:00,0.51708602905273,3,versionB_stim.csv,ReadVersion.csv,Read,Read2,CAKE,HAND,Study1,U,104,84,Study,User,-,,Study/JOL,"Study Phase2",348,,,-1,-1,,,,1
10163652TLW,6qaqg9ny6n,"Mediated JOLs",1,153,2023-09-11T16:33:27+00:00,0.57442188262939,3,versionB_stim.csv,ReadVersion.csv,Read,Read2,DARK,DAY,Study1,M,73,78,Study,User,-,,Study/JOL,"Study Phase2",298,,,-1,-1,,,,1
10163652TLW,6qaqg9ny6n,"Mediated JOLs",1,154,2023-09-11T16:33:27+00:00,0.51655912399292,3,versionB_stim.csv,ReadVersion.csv,Read,Read2,ROOT,PLANT,Study1,F,80,96,Study,User,-,,Study/JOL,"Study Phase2",352,,,-1,-1,,,,1
10163652TLW,6qaqg9ny6n,"Mediated JOLs",1,155,2023-09-11T16:33:28+00:00,0.62953186035156,3,versionB_stim.csv,ReadVersion.csv,Read,Read2,CREDIT,CARD,Study1,F,88,98,Study,User,-,,Study/JOL,"Study Phase2",373,,,-1,-1,,,,1
10163652TLW,6qaqg9ny6n,"Mediated JOLs",1,156,2023-09-11T16:33:28+00:00,0.4909200668335,3,versionB_stim.csv,ReadVersion.csv,Read,Read2,MEAT,KEYS,Study1,U,96,68,Study,User,-,,Study/JOL,"Study Phase2",303,,,-1,-1,,,,1
10163652TLW,6qaqg9ny6n,"Mediated JOLs",1,157,2023-09-11T16:33:29+00:00,0.61903691291809,3,versionB_stim.csv,ReadVersion.csv,Read,Read2,PIE,BIRTHDAY,Study1,M,64,93,Study,User,-,,Study/JOL,"Study Phase2",422,,,-1,-1,,,,1
10163652TLW,6qaqg9ny6n,"Mediated JOLs",1,158,2023-09-11T16:33:30+00:00,0.54050207138062,3,versionB_stim.csv,ReadVersion.csv,Read,Read2,ICE,FROZEN,BUFFER4,Buffer,54,52,Study,User,-,,Study/JOL,BUFFER2,375,,,-1,-1,,,,1
10163652TLW,6qaqg9ny6n,"Mediated JOLs",1,159,2023-09-11T16:33:30+00:00,0.6034779548645,3,versionB_stim.csv,ReadVersion.csv,Read,Read2,NOODLE,STRING,BUFFER4,Buffer,52,55,Study,User,-,,Study/JOL,BUFFER2,426,,,-1,-1,,,,1
10163652TLW,6qaqg9ny6n,"Mediated JOLs",1,160,2023-09-11T16:33:31+00:00,0.54531908035278,3,versionB_stim.csv,ReadVersion.csv,Read,Read2,PEANUT,BUTTER,BUFFER1,Buffer,58,59,Study,User,-,,Study/JOL,BUFFER2,360,,,-1,-1,,,,1
10163652TLW,6qaqg9ny6n,"Mediated JOLs",1,161,2023-09-11T16:33:31+00:00,0.62006306648254,3,versionB_stim.csv,ReadVersion.csv,Read,Read2,CAMP,ADVENTURE,BUFFER4,Buffer,55,54,Study,User,-,,Study/JOL,BUFFER2,429,,,-1,-1,,,,1
10163652TLW,6qaqg9ny6n,"Mediated JOLs",1,162,2023-09-11T16:33:32+00:00,0.53141188621521,3,versionB_stim.csv,ReadVersion.csv,Read,Read2,THING,STUFF,BUFFER2,Buffer,110,109,Study,User,-,,Study/JOL,BUFFER2,348,,,-1,-1,,,,1
10163652TLW,6qaqg9ny6n,"Mediated JOLs",1,163,2023-09-11T16:33:34+00:00,2.1239440441132,3,versionB_stim.csv,ReadVersion.csv,Read,Read2,,,,,,0,Instruct,User,-,"You have completed this section. Please press Enter.",Filler_Instruction,Instruct2,1948,,,-1,-1,,,,1
10163652TLW,6qaqg9ny6n,"Mediated JOLs",1,164,2023-09-11T16:35:35+00:00,120.74617195129,3,versionB_stim.csv,ReadVersion.csv,Read,Read2,,,,,,0,FreeRecall,120,120,"Please list the 50 US states in alphabetical order. The task will automatically advance to the next screen after two minutes.",,Filler1,120000,"Alambma alaska arizonia arkansaw california colerodo connetiucut delawre florida georgia hawaii idaho illinios indiana iowa kansas kentucky louisiana marlyland massachutes michagan ministot missuri montanta ne",0,3741,119608,0,0,,1
10163652TLW,6qaqg9ny6n,"Mediated JOLs",1,165,2023-09-11T16:35:53+00:00,18.524713993073,3,versionB_stim.csv,ReadVersion.csv,Read,Read2,,,,,,0,Instruct,-,10,"You will now be presented with the first word from each of the previously studied item pairs. Please type the missing word. If you do not know the word, you may guess or press Enter to skip forward to the next pair.",,Instruct3,18200,,,-1,-1,,,,1
10163652TLW,6qaqg9ny6n,"Mediated JOLs",1,166,2023-09-11T16:35:56+00:00,2.3051960468292,3,versionB_stim.csv,ReadVersion.csv,Read,Read2,CREDIT,CARD,Study1,F,88,98,Test,User,-,,Recall,Recall2,2115,card,100,1391,1913,1,1,,1
10163652TLW,6qaqg9ny6n,"Mediated JOLs",1,167,2023-09-11T16:36:00+00:00,4.6972839832306,3,versionB_stim.csv,ReadVersion.csv,Read,Read2,AFFECTION,LOVE,Study1,F,86,106,Test,User,-,,Recall,Recall2,4477,loving,60,1626,4246,0,0,,1
10163652TLW,6qaqg9ny6n,"Mediated JOLs",1,168,2023-09-11T16:36:03+00:00,2.413115978241,3,versionB_stim.csv,ReadVersion.csv,Read,Read2,SIGN,TICK,Study1,U,102,87,Test,User,-,,Recall,Recall2,2176,stop,25,1225,1850,0,0,,1
10163652TLW,6qaqg9ny6n,"Mediated JOLs",1,169,2023-09-11T16:36:05+00:00,2.2565779685974,3,versionB_stim.csv,ReadVersion.csv,Read,Read2,STRETCH,CLOTH,Study1,U,92,67,Test,User,-,,Recall,Recall2,2063,give,0,1391,1886,0,0,,1
10163652TLW,6qaqg9ny6n,"Mediated JOLs",1,170,2023-09-11T16:36:10+00:00,5.1740500926971,3,versionB_stim.csv,ReadVersion.csv,Read,Read2,VEHICLE,CHARM,Study1,U,95,101,Test,User,-,,Recall,Recall2,4987,charm,100,1572,4717,1,1,,1
10163652TLW,6qaqg9ny6n,"Mediated JOLs",1,171,2023-09-11T16:36:13+00:00,2.8885819911957,3,versionB_stim.csv,ReadVersion.csv,Read,Read2,PIE,BIRTHDAY,Study1,M,64,93,Test,User,-,,Recall,Recall2,2641,crowd,30.769230769231,1488,2444,0,0,,1
10163652TLW,6qaqg9ny6n,"Mediated JOLs",1,172,2023-09-11T16:36:15+00:00,2.426383972168,3,versionB_stim.csv,ReadVersion.csv,Read,Read2,BOTTLE,CRY,Study1,M,71,83,Test,User,-,,Recall,Recall2,2176,cap,33.333333333333,1534,1934,0,0,,1
10163652TLW,6qaqg9ny6n,"Mediated JOLs",1,173,2023-09-11T16:36:18+00:00,2.3591709136963,3,versionB_stim.csv,ReadVersion.csv,Read,Read2,WAGE,MONEY,Study1,F,77,73,Test,User,-,,Recall,Recall2,2179,tip,0,1591,1896,0,0,,1
10163652TLW,6qaqg9ny6n,"Mediated JOLs",1,174,2023-09-11T16:36:20+00:00,2.3770411014557,3,versionB_stim.csv,ReadVersion.csv,Read,Read2,SOON,BELT,Study1,U,101,74,Test,User,-,,Recall,Recall2,2092,coming,0,1212,1931,0,0,,1
10163652TLW,6qaqg9ny6n,"Mediated JOLs",1,175,2023-09-11T16:36:23+00:00,2.7092750072479,3,versionB_stim.csv,ReadVersion.csv,Read,Read2,MIRROR,MAROON,Study1,U,91,91,Test,User,-,,Recall,Recall2,2528,,0,-1,-1,0,0,,1
10163652TLW,6qaqg9ny6n,"Mediated JOLs",1,176,2023-09-11T16:36:29+00:00,5.6409549713135,3,versionB_stim.csv,ReadVersion.csv,Read,Read2,CRACKLE,ELECTION,Study1,U,94,76,Test,User,-,,Recall,Recall2,5472,election,100,4017,5251,1,1,,1
10163652TLW,6qaqg9ny6n,"Mediated JOLs",1,177,2023-09-11T16:36:30+00:00,1.8378491401672,3,versionB_stim.csv,ReadVersion.csv,Read,Read2,SYRUP,TREE,Study1,M,66,77,Test,User,-,,Recall,Recall2,1673,,0,-1,-1,0,0,,1
10163652TLW,6qaqg9ny6n,"Mediated JOLs",1,178,2023-09-11T16:36:32+00:00,1.1841008663177,3,versionB_stim.csv,ReadVersion.csv,Read,Read2,SHELL,SHAKE,Study1,U,98,64,Test,User,-,,Recall,Recall2,873,,0,-1,-1,0,0,,1
10163652TLW,6qaqg9ny6n,"Mediated JOLs",1,179,2023-09-11T16:36:33+00:00,1.1518349647522,3,versionB_stim.csv,ReadVersion.csv,Read,Read2,LISTEN,FICTION,Study1,U,99,82,Test,User,-,,Recall,Recall2,972,,0,-1,-1,0,0,,1
10163652TLW,6qaqg9ny6n,"Mediated JOLs",1,180,2023-09-11T16:36:35+00:00,2.5407569408417,3,versionB_stim.csv,ReadVersion.csv,Read,Read2,QUIET,WAR,Study1,M,63,79,Test,User,-,,Recall,Recall2,2345,hear,57.142857142857,1625,2228,0,0,,1
10163652TLW,6qaqg9ny6n,"Mediated JOLs",1,181,2023-09-11T16:36:43+00:00,8.2158470153809,3,versionB_stim.csv,ReadVersion.csv,Read,Read2,CARPET,CEILING,Study1,M,70,85,Test,User,-,,Recall,Recall2,7981,celeing,85.714285714286,1612,7779,0,1,,1
10163652TLW,6qaqg9ny6n,"Mediated JOLs",1,182,2023-09-11T16:36:47+00:00,3.1394071578979,3,versionB_stim.csv,ReadVersion.csv,Read,Read2,WORD,SENTENCE,Study1,F,82,88,Test,User,-,,Recall,Recall2,2838,sentence,100,1373,2642,1,1,,1
10163652TLW,6qaqg9ny6n,"Mediated JOLs",1,183,2023-09-11T16:36:49+00:00,2.6874480247498,3,versionB_stim.csv,ReadVersion.csv,Read,Read2,NAP,SLEEP,Study1,F,84,69,Test,User,-,,Recall,Recall2,2402,sleep,100,976,2034,1,1,,1
10163652TLW,6qaqg9ny6n,"Mediated JOLs",1,184,2023-09-11T16:36:54+00:00,4.3608949184418,3,versionB_stim.csv,ReadVersion.csv,Read,Read2,FINGER,WEDDING,Study1,M,72,70,Test,User,-,,Recall,Recall2,4095,wedding,100,2608,3654,1,1,,1
10163652TLW,6qaqg9ny6n,"Mediated JOLs",1,185,2023-09-11T16:36:56+00:00,2.4540619850159,3,versionB_stim.csv,ReadVersion.csv,Read,Read2,ORCHID,FLOWER,Study1,F,89,89,Test,User,-,,Recall,Recall2,2255,flower,100,1122,2000,1,1,,1
10163652TLW,6qaqg9ny6n,"Mediated JOLs",1,186,2023-09-11T16:36:59+00:00,2.8996949195862,3,versionB_stim.csv,ReadVersion.csv,Read,Read2,SIP,DRINK,Study1,F,87,97,Test,User,-,,Recall,Recall2,2705,drink,100,1710,2405,1,1,,1
10163652TLW,6qaqg9ny6n,"Mediated JOLs",1,187,2023-09-11T16:37:02+00:00,2.9841849803925,3,versionB_stim.csv,ReadVersion.csv,Read,Read2,LITTER,TRASH,Study1,F,76,81,Test,User,-,,Recall,Recall2,2819,trash,100,1756,2562,1,1,,1
10163652TLW,6qaqg9ny6n,"Mediated JOLs",1,188,2023-09-11T16:37:05+00:00,2.9158990383148,3,versionB_stim.csv,ReadVersion.csv,Read,Read2,MULE,DONKEY,Study1,F,79,92,Test,User,-,,Recall,Recall2,2721,donkey,100,1586,2427,1,1,,1
10163652TLW,6qaqg9ny6n,"Mediated JOLs",1,189,2023-09-11T16:37:06+00:00,1.4693989753723,3,versionB_stim.csv,ReadVersion.csv,Read,Read2,DARK,DAY,Study1,M,73,78,Test,User,-,,Recall,Recall2,1292,,0,-1,-1,0,0,,1
10163652TLW,6qaqg9ny6n,"Mediated JOLs",1,190,2023-09-11T16:37:07+00:00,1.1060001850128,3,versionB_stim.csv,ReadVersion.csv,Read,Read2,FUZZY,BANG,Study1,U,105,72,Test,User,-,,Recall,Recall2,875,,0,-1,-1,0,0,,1
10163652TLW,6qaqg9ny6n,"Mediated JOLs",1,191,2023-09-11T16:37:09+00:00,1.1257898807526,3,versionB_stim.csv,ReadVersion.csv,Read,Read2,MAZE,PHONE,Study1,U,97,63,Test,User,-,,Recall,Recall2,940,,0,-1,-1,0,0,,1
10163652TLW,6qaqg9ny6n,"Mediated JOLs",1,192,2023-09-11T16:37:11+00:00,2.2520899772644,3,versionB_stim.csv,ReadVersion.csv,Read,Read2,COTTON,HARD,Study1,M,75,80,Test,User,-,,Recall,Recall2,2057,hard,100,1335,1911,1,1,,1
10163652TLW,6qaqg9ny6n,"Mediated JOLs",1,193,2023-09-11T16:37:13+00:00,2.3900899887085,3,versionB_stim.csv,ReadVersion.csv,Read,Read2,CAKE,HAND,Study1,U,104,84,Test,User,-,,Recall,Recall2,2208,hand,100,1582,2053,1,1,,1
10163652TLW,6qaqg9ny6n,"Mediated JOLs",1,194,2023-09-11T16:37:15+00:00,1.8385050296783,3,versionB_stim.csv,ReadVersion.csv,Read,Read2,GIVE,STEAK,Study1,U,93,102,Test,User,-,,Recall,Recall2,1439,,0,-1,-1,0,0,,1
10163652TLW,6qaqg9ny6n,"Mediated JOLs",1,195,2023-09-11T16:37:17+00:00,2.0669429302216,3,versionB_stim.csv,ReadVersion.csv,Read,Read2,STRIPES,LION,Study1,M,61,104,Test,User,-,,Recall,Recall2,1717,,0,-1,-1,0,0,,1
10163652TLW,6qaqg9ny6n,"Mediated JOLs",1,196,2023-09-11T16:37:19+00:00,1.805330991745,3,versionB_stim.csv,ReadVersion.csv,Read,Read2,WHEEL,HORSE,Study1,M,69,99,Test,User,-,,Recall,Recall2,1619,,0,-1,-1,0,0,,1
10163652TLW,6qaqg9ny6n,"Mediated JOLs",1,197,2023-09-11T16:37:23+00:00,4.4295780658722,3,versionB_stim.csv,ReadVersion.csv,Read,Read2,SCALP,HEAD,Study1,F,78,94,Test,User,-,,Recall,Recall2,4158,scrape,20,2636,3739,0,0,,1
10163652TLW,6qaqg9ny6n,"Mediated JOLs",1,198,2023-09-11T16:37:25+00:00,1.2107269763947,3,versionB_stim.csv,ReadVersion.csv,Read,Read2,HYGIENE,CLEAN,Study1,F,83,103,Test,User,-,,Recall,Recall2,1042,,0,-1,-1,0,0,,1
10163652TLW,6qaqg9ny6n,"Mediated JOLs",1,199,2023-09-11T16:37:27+00:00,2.3818731307983,3,versionB_stim.csv,ReadVersion.csv,Read,Read2,TEMPERATURE,MORNING,Study1,U,103,105,Test,User,-,,Recall,Recall2,2120,heat,0,1231,1992,0,0,,1
10163652TLW,6qaqg9ny6n,"Mediated JOLs",1,200,2023-09-11T16:37:28+00:00,1.2679169178009,3,versionB_stim.csv,ReadVersion.csv,Read,Read2,TUNA,FISH,Study1,F,90,100,Test,User,-,,Recall,Recall2,1070,,0,-1,-1,0,0,,1
10163652TLW,6qaqg9ny6n,"Mediated JOLs",1,201,2023-09-11T16:37:29+00:00,1.1341490745544,3,versionB_stim.csv,ReadVersion.csv,Read,Read2,DANCE,CIRCLE,Study1,M,68,86,Test,User,-,,Recall,Recall2,935,,0,-1,-1,0,0,,1
10163652TLW,6qaqg9ny6n,"Mediated JOLs",1,202,2023-09-11T16:37:32+00:00,2.3218829631805,3,versionB_stim.csv,ReadVersion.csv,Read,Read2,HAIR,TOOTH,Study1,M,74,95,Test,User,-,,Recall,Recall2,1894,,0,-1,-1,0,0,,1
10163652TLW,6qaqg9ny6n,"Mediated JOLs",1,203,2023-09-11T16:37:34+00:00,2.6932780742645,3,versionB_stim.csv,ReadVersion.csv,Read,Read2,SILK,ROUGH,Study1,M,65,71,Test,User,-,,Recall,Recall2,2485,rough,100,1186,2144,1,1,,1
10163652TLW,6qaqg9ny6n,"Mediated JOLs",1,204,2023-09-11T16:37:37+00:00,2.5517249107361,3,versionB_stim.csv,ReadVersion.csv,Read,Read2,MULE,DONKEY,Study1,F,85,62,Test,User,-,,Recall,Recall2,2323,donkey,100,1221,1991,1,1,,1
10163652TLW,6qaqg9ny6n,"Mediated JOLs",1,205,2023-09-11T16:37:39+00:00,2.1458239555359,3,versionB_stim.csv,ReadVersion.csv,Read,Read2,KEYS,ROD,Study1,U,100,65,Test,User,-,,Recall,Recall2,1930,,0,-1,-1,0,0,,1
10163652TLW,6qaqg9ny6n,"Mediated JOLs",1,206,2023-09-11T16:37:40+00:00,1.1327929496765,3,versionB_stim.csv,ReadVersion.csv,Read,Read2,ROOT,PLANT,Study1,F,80,96,Test,User,-,,Recall,Recall2,962,,0,-1,-1,0,0,,1
10163652TLW,6qaqg9ny6n,"Mediated JOLs",1,207,2023-09-11T16:37:41+00:00,0.90921020507812,3,versionB_stim.csv,ReadVersion.csv,Read,Read2,BOX,BEACH,Study1,M,62,66,Test,User,-,,Recall,Recall2,739,,0,-1,-1,0,0,,1
10163652TLW,6qaqg9ny6n,"Mediated JOLs",1,208,2023-09-11T16:37:43+00:00,2.0270428657532,3,versionB_stim.csv,ReadVersion.csv,Read,Read2,MEAT,KEYS,Study1,U,96,68,Test,User,-,,Recall,Recall2,1862,,0,-1,-1,0,0,,1
10163652TLW,6qaqg9ny6n,"Mediated JOLs",1,209,2023-09-11T16:37:48+00:00,4.4775879383087,3,versionB_stim.csv,ReadVersion.csv,Read,Read2,BOUNCE,BAT,Study1,M,67,90,Test,User,-,,Recall,Recall2,4201,,0,-1,-1,0,0,,1
10163652TLW,6qaqg9ny6n,"Mediated JOLs",1,210,2023-09-11T16:37:50+00:00,2.1793720722198,3,versionB_stim.csv,ReadVersion.csv,Read,Read2,SWAN,BIRD,Study1,F,81,75,Test,User,-,,Recall,Recall2,1989,bird,100,1205,1807,1,1,,1
10163652TLW,6qaqg9ny6n,"Mediated JOLs",1,211,2023-09-11T16:37:52+00:00,1.9592180252075,3,versionB_stim.csv,ReadVersion.csv,Read,Read2,,,,,,0,Instruct,User,-,"You have completed this section. Please press Enter.",,Instruct7,1718,,,-1,-1,,,,1
10163652TLW,6qaqg9ny6n,"Mediated JOLs",1,212,2023-09-11T16:37:54+00:00,2.3027529716492,3,versionB_stim.csv,ReadVersion.csv,Read,Read2,,,,,,0,Instruct,User,-,"The following screen will ask you a few questions abour your experience today. You must complete these questions to receive credit.",,Instruct8,2126,,,-1,-1,,,,1
