Username,ID,ExperimentName,Session,Trial,Date,TimeDif,"Condition Number","Stimuli File","Order File","Condition Description","Condition Notes",Stimuli*Cue,Stimuli*Answer,Stimuli*Shuffle,"Stimuli*Stimuli Notes",Stimuli*Value,Procedure*Item,"Procedure*Trial Type","Procedure*Max Time","Procedure*Min Time",Procedure*Text,"Procedure*Procedure Notes",Procedure*Shuffle,Response*RT,Response*Response,Response*Accuracy,Response*RTfirst,Response*RTlast,Response*strictAcc,Response*lenientAcc,Response*focus,Response*Focus
w10134028,6l06cur9yl,"Mediated JOLs",1,1,2023-08-22T17:04:04+00:00,6.5481650829315,1,versionA_stim.csv,ReadVersion.csv,Read,Read1,,,,,,0,Instruct,-,5,"In this section, you will be presented with a series of word pairs. Please study each word pair! Your memory will be tested!",Initial_Instruct,Instruct1,6327,,,-1,-1,,,,1
w10134028,6l06cur9yl,"Mediated JOLs",1,2,2023-08-22T17:04:07+00:00,2.6035540103912,1,versionA_stim.csv,ReadVersion.csv,Read,Read1,,,,,,0,Instruct,User,-,"You will now begin. Press Enter when you are ready to begin.",,Instruct16,2297,,,-1,-1,,,,1
w10134028,6l06cur9yl,"Mediated JOLs",1,3,2023-08-22T17:04:09+00:00,2.0527830123901,1,versionA_stim.csv,ReadVersion.csv,Read,Read1,TREES,GREEN,BUFFER1,Buffer,1,5,Study,User,-,,Study/JOL,BUFFER,1571,,,-1,-1,,,,1
w10134028,6l06cur9yl,"Mediated JOLs",1,4,2023-08-22T17:04:11+00:00,1.6826539039612,1,versionA_stim.csv,ReadVersion.csv,Read,Read1,PEANUT,BUTTER,BUFFER1,Buffer,3,4,Study,User,-,,Study/JOL,BUFFER,1410,,,-1,-1,,,,1
w10134028,6l06cur9yl,"Mediated JOLs",1,5,2023-08-22T17:04:12+00:00,1.580906867981,1,versionA_stim.csv,ReadVersion.csv,Read,Read1,PITCHER,CATCHER,BUFFER1,Buffer,2,6,Study,User,-,,Study/JOL,BUFFER,1321,,,-1,-1,,,,1
w10134028,6l06cur9yl,"Mediated JOLs",1,6,2023-08-22T17:04:15+00:00,2.2709491252899,1,versionA_stim.csv,ReadVersion.csv,Read,Read1,SCARE,FRIGHT,BUFFER1,Buffer,4,3,Study,User,-,,Study/JOL,BUFFER,1782,,,-1,-1,,,,1
w10134028,6l06cur9yl,"Mediated JOLs",1,7,2023-08-22T17:04:17+00:00,2.2988569736481,1,versionA_stim.csv,ReadVersion.csv,Read,Read1,SPACE,JAM,BUFFER1,Buffer,5,2,Study,User,-,,Study/JOL,BUFFER,2044,,,-1,-1,,,,1
w10134028,6l06cur9yl,"Mediated JOLs",1,8,2023-08-22T17:04:20+00:00,2.9657769203186,1,versionA_stim.csv,ReadVersion.csv,Read,Read1,COTTON,HARD,Study1,M,20,7,Study,User,-,,Study/JOL,"Study Phase",2457,,,-1,-1,,,,1
w10134028,6l06cur9yl,"Mediated JOLs",1,9,2023-08-22T17:04:21+00:00,1.5016610622406,1,versionA_stim.csv,ReadVersion.csv,Read,Read1,TUNA,FISH,Study1,F,35,27,Study,User,-,,Study/JOL,"Study Phase",1076,,,-1,-1,,,,1
w10134028,6l06cur9yl,"Mediated JOLs",1,10,2023-08-22T17:04:22+00:00,1.0422329902649,1,versionA_stim.csv,ReadVersion.csv,Read,Read1,NAP,SLEEP,Study1,F,29,15,Study,User,-,,Study/JOL,"Study Phase",776,,,-1,-1,,,,1
w10134028,6l06cur9yl,"Mediated JOLs",1,11,2023-08-22T17:04:24+00:00,1.4499139785767,1,versionA_stim.csv,ReadVersion.csv,Read,Read1,SHELL,SHAKE,Study1,U,43,41,Study,User,-,,Study/JOL,"Study Phase",910,,,-1,-1,,,,1
w10134028,6l06cur9yl,"Mediated JOLs",1,12,2023-08-22T17:04:25+00:00,1.4695270061493,1,versionA_stim.csv,ReadVersion.csv,Read,Read1,SIGN,TICK,Study1,U,47,48,Study,User,-,,Study/JOL,"Study Phase",1217,,,-1,-1,,,,1
w10134028,6l06cur9yl,"Mediated JOLs",1,13,2023-08-22T17:04:27+00:00,1.2505390644073,1,versionA_stim.csv,ReadVersion.csv,Read,Read1,KEYS,ROD,Study1,U,45,40,Study,User,-,,Study/JOL,"Study Phase",989,,,-1,-1,,,,1
w10134028,6l06cur9yl,"Mediated JOLs",1,14,2023-08-22T17:04:28+00:00,1.9020290374756,1,versionA_stim.csv,ReadVersion.csv,Read,Read1,SWAN,BIRD,Study1,F,26,35,Study,User,-,,Study/JOL,"Study Phase",1607,,,-1,-1,,,,1
w10134028,6l06cur9yl,"Mediated JOLs",1,15,2023-08-22T17:04:31+00:00,2.5722479820251,1,versionA_stim.csv,ReadVersion.csv,Read,Read1,MAZE,PHONE,Study1,U,42,51,Study,User,-,,Study/JOL,"Study Phase",1405,,,-1,-1,,,,1
w10134028,6l06cur9yl,"Mediated JOLs",1,16,2023-08-22T17:04:33+00:00,1.9113049507141,1,versionA_stim.csv,ReadVersion.csv,Read,Read1,WAGE,MONEY,Study1,F,22,23,Study,User,-,,Study/JOL,"Study Phase",1656,,,-1,-1,,,,1
w10134028,6l06cur9yl,"Mediated JOLs",1,17,2023-08-22T17:04:35+00:00,1.89599609375,1,versionA_stim.csv,ReadVersion.csv,Read,Read1,BOUNCE,BAT,Study1,M,12,22,Study,User,-,,Study/JOL,"Study Phase",1633,,,-1,-1,,,,1
w10134028,6l06cur9yl,"Mediated JOLs",1,18,2023-08-22T17:04:37+00:00,2.1590359210968,1,versionA_stim.csv,ReadVersion.csv,Read,Read1,TEMPERATURE,MORNING,Study1,U,48,13,Study,User,-,,Study/JOL,"Study Phase",1906,,,-1,-1,,,,1
w10134028,6l06cur9yl,"Mediated JOLs",1,19,2023-08-22T17:04:38+00:00,1.1363160610199,1,versionA_stim.csv,ReadVersion.csv,Read,Read1,MEAT,KEYS,Study1,U,41,47,Study,User,-,,Study/JOL,"Study Phase",868,,,-1,-1,,,,1
w10134028,6l06cur9yl,"Mediated JOLs",1,20,2023-08-22T17:04:40+00:00,1.6347110271454,1,versionA_stim.csv,ReadVersion.csv,Read,Read1,MIRROR,MAROON,Study1,U,36,38,Study,User,-,,Study/JOL,"Study Phase",1362,,,-1,-1,,,,1
w10134028,6l06cur9yl,"Mediated JOLs",1,21,2023-08-22T17:04:41+00:00,0.95259785652161,1,versionA_stim.csv,ReadVersion.csv,Read,Read1,FINGER,WEDDING,Study1,M,17,43,Study,User,-,,Study/JOL,"Study Phase",700,,,-1,-1,,,,1
w10134028,6l06cur9yl,"Mediated JOLs",1,22,2023-08-22T17:04:43+00:00,1.9981200695038,1,versionA_stim.csv,ReadVersion.csv,Read,Read1,SCALP,HEAD,Study1,F,23,50,Study,User,-,,Study/JOL,"Study Phase",1750,,,-1,-1,,,,1
w10134028,6l06cur9yl,"Mediated JOLs",1,23,2023-08-22T17:04:45+00:00,2.1778929233551,1,versionA_stim.csv,ReadVersion.csv,Read,Read1,SYRUP,TREE,Study1,M,11,10,Study,User,-,,Study/JOL,"Study Phase",1928,,,-1,-1,,,,1
w10134028,6l06cur9yl,"Mediated JOLs",1,24,2023-08-22T17:04:46+00:00,1.4203290939331,1,versionA_stim.csv,ReadVersion.csv,Read,Read1,MULE,DONKEY,Study1,F,24,25,Study,User,-,,Study/JOL,"Study Phase",1159,,,-1,-1,,,,1
w10134028,6l06cur9yl,"Mediated JOLs",1,25,2023-08-22T17:04:47+00:00,1.1100468635559,1,versionA_stim.csv,ReadVersion.csv,Read,Read1,HAIR,TOOTH,Study1,M,19,17,Study,User,-,,Study/JOL,"Study Phase",855,,,-1,-1,,,,1
w10134028,6l06cur9yl,"Mediated JOLs",1,26,2023-08-22T17:04:48+00:00,0.82473015785217,1,versionA_stim.csv,ReadVersion.csv,Read,Read1,ROOT,PLANT,Study1,F,25,16,Study,User,-,,Study/JOL,"Study Phase",579,,,-1,-1,,,,1
w10134028,6l06cur9yl,"Mediated JOLs",1,27,2023-08-22T17:04:49+00:00,1.0397820472717,1,versionA_stim.csv,ReadVersion.csv,Read,Read1,BOTTLE,CRY,Study1,M,16,31,Study,User,-,,Study/JOL,"Study Phase",784,,,-1,-1,,,,1
w10134028,6l06cur9yl,"Mediated JOLs",1,28,2023-08-22T17:04:54+00:00,5.1349380016327,1,versionA_stim.csv,ReadVersion.csv,Read,Read1,WHEEL,HORSE,Study1,M,14,45,Study,User,-,,Study/JOL,"Study Phase",4871,,,-1,-1,,,,1
w10134028,6l06cur9yl,"Mediated JOLs",1,29,2023-08-22T17:04:55+00:00,0.86651396751404,1,versionA_stim.csv,ReadVersion.csv,Read,Read1,WORD,SENTENCE,Study1,F,27,14,Study,User,-,,Study/JOL,"Study Phase",609,,,-1,-1,,,,1
w10134028,6l06cur9yl,"Mediated JOLs",1,30,2023-08-22T17:04:56+00:00,0.94832801818848,1,versionA_stim.csv,ReadVersion.csv,Read,Read1,QUIET,WAR,Study1,M,8,29,Study,User,-,,Study/JOL,"Study Phase",700,,,-1,-1,,,,1
w10134028,6l06cur9yl,"Mediated JOLs",1,31,2023-08-22T17:04:57+00:00,1.0589020252228,1,versionA_stim.csv,ReadVersion.csv,Read,Read1,VEHICLE,CHARM,Study1,U,40,8,Study,User,-,,Study/JOL,"Study Phase",809,,,-1,-1,,,,1
w10134028,6l06cur9yl,"Mediated JOLs",1,32,2023-08-22T17:04:58+00:00,1.1784188747406,1,versionA_stim.csv,ReadVersion.csv,Read,Read1,PIE,BIRTHDAY,Study1,M,9,20,Study,User,-,,Study/JOL,"Study Phase",877,,,-1,-1,,,,1
w10134028,6l06cur9yl,"Mediated JOLs",1,33,2023-08-22T17:04:59+00:00,0.93765306472778,1,versionA_stim.csv,ReadVersion.csv,Read,Read1,ORCHID,FLOWER,Study1,F,34,19,Study,User,-,,Study/JOL,"Study Phase",676,,,-1,-1,,,,1
w10134028,6l06cur9yl,"Mediated JOLs",1,34,2023-08-22T17:05:01+00:00,2.0244860649109,1,versionA_stim.csv,ReadVersion.csv,Read,Read1,CREDIT,CARD,Study1,F,33,33,Study,User,-,,Study/JOL,"Study Phase",1764,,,-1,-1,,,,1
w10134028,6l06cur9yl,"Mediated JOLs",1,35,2023-08-22T17:05:03+00:00,1.7204129695892,1,versionA_stim.csv,ReadVersion.csv,Read,Read1,CARPET,CEILING,Study1,M,15,34,Study,User,-,,Study/JOL,"Study Phase",1229,,,-1,-1,,,,1
w10134028,6l06cur9yl,"Mediated JOLs",1,36,2023-08-22T17:05:05+00:00,1.7572100162506,1,versionA_stim.csv,ReadVersion.csv,Read,Read1,STRIPES,LION,Study1,M,6,39,Study,User,-,,Study/JOL,"Study Phase",1503,,,-1,-1,,,,1
w10134028,6l06cur9yl,"Mediated JOLs",1,37,2023-08-22T17:05:06+00:00,1.087671995163,1,versionA_stim.csv,ReadVersion.csv,Read,Read1,MULE,DONKEY,Study1,F,30,32,Study,User,-,,Study/JOL,"Study Phase",820,,,-1,-1,,,,1
w10134028,6l06cur9yl,"Mediated JOLs",1,38,2023-08-22T17:05:07+00:00,0.98553991317749,1,versionA_stim.csv,ReadVersion.csv,Read,Read1,CRACKLE,ELECTION,Study1,U,39,11,Study,User,-,,Study/JOL,"Study Phase",727,,,-1,-1,,,,1
w10134028,6l06cur9yl,"Mediated JOLs",1,39,2023-08-22T17:05:08+00:00,0.95269799232483,1,versionA_stim.csv,ReadVersion.csv,Read,Read1,AFFECTION,LOVE,Study1,F,31,12,Study,User,-,,Study/JOL,"Study Phase",701,,,-1,-1,,,,1
w10134028,6l06cur9yl,"Mediated JOLs",1,40,2023-08-22T17:05:09+00:00,0.81789398193359,1,versionA_stim.csv,ReadVersion.csv,Read,Read1,HYGIENE,CLEAN,Study1,F,28,42,Study,User,-,,Study/JOL,"Study Phase",579,,,-1,-1,,,,1
w10134028,6l06cur9yl,"Mediated JOLs",1,41,2023-08-22T17:05:10+00:00,1.2637929916382,1,versionA_stim.csv,ReadVersion.csv,Read,Read1,SOON,BELT,Study1,U,46,9,Study,User,-,,Study/JOL,"Study Phase",1033,,,-1,-1,,,,1
w10134028,6l06cur9yl,"Mediated JOLs",1,42,2023-08-22T17:05:11+00:00,1.0223090648651,1,versionA_stim.csv,ReadVersion.csv,Read,Read1,LISTEN,FICTION,Study1,U,44,36,Study,User,-,,Study/JOL,"Study Phase",778,,,-1,-1,,,,1
w10134028,6l06cur9yl,"Mediated JOLs",1,43,2023-08-22T17:05:12+00:00,1.1536378860474,1,versionA_stim.csv,ReadVersion.csv,Read,Read1,DARK,DAY,Study1,M,18,26,Study,User,-,,Study/JOL,"Study Phase",918,,,-1,-1,,,,1
w10134028,6l06cur9yl,"Mediated JOLs",1,44,2023-08-22T17:05:13+00:00,0.8559901714325,1,versionA_stim.csv,ReadVersion.csv,Read,Read1,BOX,BEACH,Study1,M,7,28,Study,User,-,,Study/JOL,"Study Phase",613,,,-1,-1,,,,1
w10134028,6l06cur9yl,"Mediated JOLs",1,45,2023-08-22T17:05:14+00:00,0.90132594108582,1,versionA_stim.csv,ReadVersion.csv,Read,Read1,CAKE,HAND,Study1,U,49,30,Study,User,-,,Study/JOL,"Study Phase",614,,,-1,-1,,,,1
w10134028,6l06cur9yl,"Mediated JOLs",1,46,2023-08-22T17:05:15+00:00,0.85013604164124,1,versionA_stim.csv,ReadVersion.csv,Read,Read1,LITTER,TRASH,Study1,F,21,18,Study,User,-,,Study/JOL,"Study Phase",363,,,-1,-1,,,,1
w10134028,6l06cur9yl,"Mediated JOLs",1,47,2023-08-22T17:05:16+00:00,0.83407783508301,1,versionA_stim.csv,ReadVersion.csv,Read,Read1,SIP,DRINK,Study1,F,32,44,Study,User,-,,Study/JOL,"Study Phase",587,,,-1,-1,,,,1
w10134028,6l06cur9yl,"Mediated JOLs",1,48,2023-08-22T17:05:16+00:00,0.68117117881775,1,versionA_stim.csv,ReadVersion.csv,Read,Read1,DANCE,CIRCLE,Study1,M,13,21,Study,User,-,,Study/JOL,"Study Phase",406,,,-1,-1,,,,1
w10134028,6l06cur9yl,"Mediated JOLs",1,49,2023-08-22T17:05:17+00:00,0.72980189323425,1,versionA_stim.csv,ReadVersion.csv,Read,Read1,GIVE,STEAK,Study1,U,38,24,Study,User,-,,Study/JOL,"Study Phase",449,,,-1,-1,,,,1
w10134028,6l06cur9yl,"Mediated JOLs",1,50,2023-08-22T17:05:18+00:00,0.6730649471283,1,versionA_stim.csv,ReadVersion.csv,Read,Read1,FUZZY,BANG,Study1,U,50,46,Study,User,-,,Study/JOL,"Study Phase",430,,,-1,-1,,,,1
w10134028,6l06cur9yl,"Mediated JOLs",1,51,2023-08-22T17:05:18+00:00,0.62212109565735,1,versionA_stim.csv,ReadVersion.csv,Read,Read1,STRETCH,CLOTH,Study1,U,37,37,Study,User,-,,Study/JOL,"Study Phase",373,,,-1,-1,,,,1
w10134028,6l06cur9yl,"Mediated JOLs",1,52,2023-08-22T17:05:19+00:00,0.57164788246155,1,versionA_stim.csv,ReadVersion.csv,Read,Read1,SILK,ROUGH,Study1,M,10,49,Study,User,-,,Study/JOL,"Study Phase",317,,,-1,-1,,,,1
w10134028,6l06cur9yl,"Mediated JOLs",1,53,2023-08-22T17:05:20+00:00,0.59840297698975,1,versionA_stim.csv,ReadVersion.csv,Read,Read1,MOON,SPACE,BUFFER2,Buffer,54,56,Study,User,-,,Study/JOL,BUFFER2,345,,,-1,-1,,,,1
w10134028,6l06cur9yl,"Mediated JOLs",1,54,2023-08-22T17:05:20+00:00,0.73113822937012,1,versionA_stim.csv,ReadVersion.csv,Read,Read1,SHERRIF,POLICE,BUFFER2,Buffer,52,54,Study,User,-,,Study/JOL,BUFFER2,396,,,-1,-1,,,,1
w10134028,6l06cur9yl,"Mediated JOLs",1,55,2023-08-22T17:05:21+00:00,0.57228779792786,1,versionA_stim.csv,ReadVersion.csv,Read,Read1,MONTH,YEAR,BUFFER3,Buffer,57,59,Study,User,-,,Study/JOL,BUFFER2,327,,,-1,-1,,,,1
w10134028,6l06cur9yl,"Mediated JOLs",1,56,2023-08-22T17:05:21+00:00,0.59026312828064,1,versionA_stim.csv,ReadVersion.csv,Read,Read1,SPRING,MARCH,BUFFER3,Buffer,59,61,Study,User,-,,Study/JOL,BUFFER2,340,,,-1,-1,,,,1
w10134028,6l06cur9yl,"Mediated JOLs",1,57,2023-08-22T17:05:22+00:00,0.61305284500122,1,versionA_stim.csv,ReadVersion.csv,Read,Read1,DAYS,WEAKS,BUFFER3,Buffer,56,57,Study,User,-,,Study/JOL,BUFFER2,356,,,-1,-1,,,,1
w10134028,6l06cur9yl,"Mediated JOLs",1,58,2023-08-22T17:05:24+00:00,2.237401008606,1,versionA_stim.csv,ReadVersion.csv,Read,Read1,,,,,,0,Instruct,User,-,"You have completed this section. Please press Enter.",Filler_Instruction,Instruct2,1994,,,-1,-1,,,,1
w10134028,6l06cur9yl,"Mediated JOLs",1,59,2023-08-22T17:07:25+00:00,120.81652903557,1,versionA_stim.csv,ReadVersion.csv,Read,Read1,,,,,,0,FreeRecall,120,120,"Please list the 50 US states in alphabetical order. The task will automatically advance to the next screen after two minutes.",,Filler1,120000,"Alabama Alaska Arizona Arkansas California Colorado Connecticut Delaware Florida Georgia Hawaii Idaho Illinois Indiana Iowa Kansas Kentucky Louisiana Maine Maryland Massachusetts Michigan Minnesota Mississippi Missouri Montana Nebraska Nevada New Hampshire New Jersey New Mexico New York North Carolina North Dakota Ohio Oklahoma Oregon Pennsylvania Rhode Island South Carolina South Dakota Tennessee Texas Utah Vermont Virginia Washington West Virginia Wisconsin Wyoming",0,-1,-1,0,0,,0.707
w10134028,6l06cur9yl,"Mediated JOLs",1,60,2023-08-22T17:07:39+00:00,14.336811065674,1,versionA_stim.csv,ReadVersion.csv,Read,Read1,,,,,,0,Instruct,-,10,"You will now be presented with the first word from each of the previously studied item pairs. Please type the missing word. If you do not know the word, you may guess or press Enter to skip forward to the next pair.",,Instruct3,13953,,,-1,-1,,,,1
w10134028,6l06cur9yl,"Mediated JOLs",1,61,2023-08-22T17:07:44+00:00,4.1722550392151,1,versionA_stim.csv,ReadVersion.csv,Read,Read1,SCALP,HEAD,Study1,F,23,50,Test,User,-,,Recall,Recall1,3915,bald,50,2217,2748,0,0,,1
w10134028,6l06cur9yl,"Mediated JOLs",1,62,2023-08-22T17:07:51+00:00,7.138335943222,1,versionA_stim.csv,ReadVersion.csv,Read,Read1,WAGE,MONEY,Study1,F,22,23,Test,User,-,,Recall,Recall1,6847,money,100,3562,5573,1,1,,1
w10134028,6l06cur9yl,"Mediated JOLs",1,63,2023-08-22T17:07:53+00:00,2.3065540790558,1,versionA_stim.csv,ReadVersion.csv,Read,Read1,LISTEN,FICTION,Study1,U,44,36,Test,User,-,,Recall,Recall1,2056,,0,-1,-1,0,0,,1
w10134028,6l06cur9yl,"Mediated JOLs",1,64,2023-08-22T17:07:55+00:00,1.7165658473969,1,versionA_stim.csv,ReadVersion.csv,Read,Read1,FINGER,WEDDING,Study1,M,17,43,Test,User,-,,Recall,Recall1,1471,,0,-1,-1,0,0,,1
w10134028,6l06cur9yl,"Mediated JOLs",1,65,2023-08-22T17:07:58+00:00,3.4475359916687,1,versionA_stim.csv,ReadVersion.csv,Read,Read1,TUNA,FISH,Study1,F,35,27,Test,User,-,,Recall,Recall1,3176,fish,100,1554,1917,1,1,,1
w10134028,6l06cur9yl,"Mediated JOLs",1,66,2023-08-22T17:08:05+00:00,6.5426661968231,1,versionA_stim.csv,ReadVersion.csv,Read,Read1,SYRUP,TREE,Study1,M,11,10,Test,User,-,,Recall,Recall1,6297,,0,-1,-1,0,0,,1
w10134028,6l06cur9yl,"Mediated JOLs",1,67,2023-08-22T17:08:17+00:00,12.265273809433,1,versionA_stim.csv,ReadVersion.csv,Read,Read1,CARPET,CEILING,Study1,M,15,34,Test,User,-,,Recall,Recall1,11816,,0,-1,-1,0,0,,1
w10134028,6l06cur9yl,"Mediated JOLs",1,68,2023-08-22T17:08:20+00:00,3.5008890628815,1,versionA_stim.csv,ReadVersion.csv,Read,Read1,VEHICLE,CHARM,Study1,U,40,8,Test,User,-,,Recall,Recall1,3240,,0,-1,-1,0,0,,1
w10134028,6l06cur9yl,"Mediated JOLs",1,69,2023-08-22T17:08:22+00:00,1.2850999832153,1,versionA_stim.csv,ReadVersion.csv,Read,Read1,WORD,SENTENCE,Study1,F,27,14,Test,User,-,,Recall,Recall1,1029,,0,-1,-1,0,0,,1
w10134028,6l06cur9yl,"Mediated JOLs",1,70,2023-08-22T17:08:23+00:00,1.2116611003876,1,versionA_stim.csv,ReadVersion.csv,Read,Read1,SOON,BELT,Study1,U,46,9,Test,User,-,,Recall,Recall1,955,,0,-1,-1,0,0,,1
w10134028,6l06cur9yl,"Mediated JOLs",1,71,2023-08-22T17:08:24+00:00,1.3619349002838,1,versionA_stim.csv,ReadVersion.csv,Read,Read1,LITTER,TRASH,Study1,F,21,18,Test,User,-,,Recall,Recall1,1019,,0,-1,-1,0,0,,1
w10134028,6l06cur9yl,"Mediated JOLs",1,72,2023-08-22T17:08:29+00:00,5.1034209728241,1,versionA_stim.csv,ReadVersion.csv,Read,Read1,DARK,DAY,Study1,M,18,26,Test,User,-,,Recall,Recall1,4488,light,0,2569,3319,0,0,,1
w10134028,6l06cur9yl,"Mediated JOLs",1,73,2023-08-22T17:08:31+00:00,1.6406199932098,1,versionA_stim.csv,ReadVersion.csv,Read,Read1,HYGIENE,CLEAN,Study1,F,28,42,Test,User,-,,Recall,Recall1,927,,0,-1,-1,0,0,,1
w10134028,6l06cur9yl,"Mediated JOLs",1,74,2023-08-22T17:08:33+00:00,1.4344940185547,1,versionA_stim.csv,ReadVersion.csv,Read,Read1,ORCHID,FLOWER,Study1,F,34,19,Test,User,-,,Recall,Recall1,1191,,0,-1,-1,0,0,,1
w10134028,6l06cur9yl,"Mediated JOLs",1,75,2023-08-22T17:08:36+00:00,3.8691771030426,1,versionA_stim.csv,ReadVersion.csv,Read,Read1,BOTTLE,CRY,Study1,M,16,31,Test,User,-,,Recall,Recall1,3612,cap,33.333333333333,2086,2733,0,0,,1
w10134028,6l06cur9yl,"Mediated JOLs",1,76,2023-08-22T17:08:43+00:00,6.4142420291901,1,versionA_stim.csv,ReadVersion.csv,Read,Read1,BOX,BEACH,Study1,M,7,28,Test,User,-,,Recall,Recall1,5888,,0,-1,-1,0,0,,1
w10134028,6l06cur9yl,"Mediated JOLs",1,77,2023-08-22T17:08:44+00:00,1.5980398654938,1,versionA_stim.csv,ReadVersion.csv,Read,Read1,SHELL,SHAKE,Study1,U,43,41,Test,User,-,,Recall,Recall1,1213,,0,-1,-1,0,0,,1
w10134028,6l06cur9yl,"Mediated JOLs",1,78,2023-08-22T17:08:48+00:00,3.4164760112762,1,versionA_stim.csv,ReadVersion.csv,Read,Read1,MULE,DONKEY,Study1,F,24,25,Test,User,-,,Recall,Recall1,2786,deer,40,1826,2388,0,0,,1
w10134028,6l06cur9yl,"Mediated JOLs",1,79,2023-08-22T17:08:50+00:00,2.1201131343842,1,versionA_stim.csv,ReadVersion.csv,Read,Read1,HAIR,TOOTH,Study1,M,19,17,Test,User,-,,Recall,Recall1,1403,,0,-1,-1,0,0,,1
w10134028,6l06cur9yl,"Mediated JOLs",1,80,2023-08-22T17:08:54+00:00,4.3136358261108,1,versionA_stim.csv,ReadVersion.csv,Read,Read1,MEAT,KEYS,Study1,U,41,47,Test,User,-,,Recall,Recall1,3927,great,22.222222222222,2492,3471,0,0,,1
w10134028,6l06cur9yl,"Mediated JOLs",1,81,2023-08-22T17:08:56+00:00,1.6549701690674,1,versionA_stim.csv,ReadVersion.csv,Read,Read1,TEMPERATURE,MORNING,Study1,U,48,13,Test,User,-,,Recall,Recall1,1407,,0,-1,-1,0,0,,1
w10134028,6l06cur9yl,"Mediated JOLs",1,82,2023-08-22T17:08:59+00:00,3.2607598304749,1,versionA_stim.csv,ReadVersion.csv,Read,Read1,COTTON,HARD,Study1,M,20,7,Test,User,-,,Recall,Recall1,2599,hard,100,1365,2012,1,1,,1
w10134028,6l06cur9yl,"Mediated JOLs",1,83,2023-08-22T17:09:01+00:00,1.9399561882019,1,versionA_stim.csv,ReadVersion.csv,Read,Read1,ROOT,PLANT,Study1,F,25,16,Test,User,-,,Recall,Recall1,1689,,0,-1,-1,0,0,,1
w10134028,6l06cur9yl,"Mediated JOLs",1,84,2023-08-22T17:09:03+00:00,2.2914998531342,1,versionA_stim.csv,ReadVersion.csv,Read,Read1,GIVE,STEAK,Study1,U,38,24,Test,User,-,,Recall,Recall1,2042,,0,-1,-1,0,0,,1
w10134028,6l06cur9yl,"Mediated JOLs",1,85,2023-08-22T17:09:05+00:00,1.320778131485,1,versionA_stim.csv,ReadVersion.csv,Read,Read1,BOUNCE,BAT,Study1,M,12,22,Test,User,-,,Recall,Recall1,925,,0,-1,-1,0,0,,1
w10134028,6l06cur9yl,"Mediated JOLs",1,86,2023-08-22T17:09:09+00:00,4.172917842865,1,versionA_stim.csv,ReadVersion.csv,Read,Read1,MAZE,PHONE,Study1,U,42,51,Test,User,-,,Recall,Recall1,3725,phone,100,1421,3164,1,1,,1
w10134028,6l06cur9yl,"Mediated JOLs",1,87,2023-08-22T17:09:10+00:00,1.3850481510162,1,versionA_stim.csv,ReadVersion.csv,Read,Read1,CRACKLE,ELECTION,Study1,U,39,11,Test,User,-,,Recall,Recall1,1132,,0,-1,-1,0,0,,1
w10134028,6l06cur9yl,"Mediated JOLs",1,88,2023-08-22T17:09:14+00:00,3.7664778232574,1,versionA_stim.csv,ReadVersion.csv,Read,Read1,NAP,SLEEP,Study1,F,29,15,Test,User,-,,Recall,Recall1,3513,sleep,100,1287,2860,1,1,,1
w10134028,6l06cur9yl,"Mediated JOLs",1,89,2023-08-22T17:09:16+00:00,1.8545150756836,1,versionA_stim.csv,ReadVersion.csv,Read,Read1,PIE,BIRTHDAY,Study1,M,9,20,Test,User,-,,Recall,Recall1,1022,,0,-1,-1,0,0,,1
w10134028,6l06cur9yl,"Mediated JOLs",1,90,2023-08-22T17:09:18+00:00,2.0456399917603,1,versionA_stim.csv,ReadVersion.csv,Read,Read1,CREDIT,CARD,Study1,F,33,33,Test,User,-,,Recall,Recall1,1786,,0,-1,-1,0,0,,1
w10134028,6l06cur9yl,"Mediated JOLs",1,91,2023-08-22T17:09:19+00:00,1.0170071125031,1,versionA_stim.csv,ReadVersion.csv,Read,Read1,DANCE,CIRCLE,Study1,M,13,21,Test,User,-,,Recall,Recall1,746,,0,-1,-1,0,0,,1
w10134028,6l06cur9yl,"Mediated JOLs",1,92,2023-08-22T17:09:20+00:00,1.289214849472,1,versionA_stim.csv,ReadVersion.csv,Read,Read1,AFFECTION,LOVE,Study1,F,31,12,Test,User,-,,Recall,Recall1,1036,,0,-1,-1,0,0,,1
w10134028,6l06cur9yl,"Mediated JOLs",1,93,2023-08-22T17:09:21+00:00,0.93573808670044,1,versionA_stim.csv,ReadVersion.csv,Read,Read1,STRIPES,LION,Study1,M,6,39,Test,User,-,,Recall,Recall1,684,,0,-1,-1,0,0,,1
w10134028,6l06cur9yl,"Mediated JOLs",1,94,2023-08-22T17:09:23+00:00,1.4002020359039,1,versionA_stim.csv,ReadVersion.csv,Read,Read1,STRETCH,CLOTH,Study1,U,37,37,Test,User,-,,Recall,Recall1,850,,0,-1,-1,0,0,,1
w10134028,6l06cur9yl,"Mediated JOLs",1,95,2023-08-22T17:09:24+00:00,0.93859601020813,1,versionA_stim.csv,ReadVersion.csv,Read,Read1,FUZZY,BANG,Study1,U,50,46,Test,User,-,,Recall,Recall1,680,,0,-1,-1,0,0,,1
w10134028,6l06cur9yl,"Mediated JOLs",1,96,2023-08-22T17:09:28+00:00,4.867684841156,1,versionA_stim.csv,ReadVersion.csv,Read,Read1,SWAN,BIRD,Study1,F,26,35,Test,User,-,,Recall,Recall1,4616,bird,100,1442,4101,1,1,,1
w10134028,6l06cur9yl,"Mediated JOLs",1,97,2023-08-22T17:09:30+00:00,2.0092961788177,1,versionA_stim.csv,ReadVersion.csv,Read,Read1,SIGN,TICK,Study1,U,47,48,Test,User,-,,Recall,Recall1,1736,,0,-1,-1,0,0,,1
w10134028,6l06cur9yl,"Mediated JOLs",1,98,2023-08-22T17:09:34+00:00,3.914125919342,1,versionA_stim.csv,ReadVersion.csv,Read,Read1,SIP,DRINK,Study1,F,32,44,Test,User,-,,Recall,Recall1,3670,drinkk,90.909090909091,1928,3273,0,1,,1
w10134028,6l06cur9yl,"Mediated JOLs",1,99,2023-08-22T17:09:39+00:00,4.3711919784546,1,versionA_stim.csv,ReadVersion.csv,Read,Read1,KEYS,ROD,Study1,U,45,40,Test,User,-,,Recall,Recall1,3858,rod,100,2186,3179,1,1,,1
w10134028,6l06cur9yl,"Mediated JOLs",1,100,2023-08-22T17:09:40+00:00,1.4140160083771,1,versionA_stim.csv,ReadVersion.csv,Read,Read1,WHEEL,HORSE,Study1,M,14,45,Test,User,-,,Recall,Recall1,1162,,0,-1,-1,0,0,,1
w10134028,6l06cur9yl,"Mediated JOLs",1,101,2023-08-22T17:09:41+00:00,1.2242851257324,1,versionA_stim.csv,ReadVersion.csv,Read,Read1,CAKE,HAND,Study1,U,49,30,Test,User,-,,Recall,Recall1,962,,0,-1,-1,0,0,,1
w10134028,6l06cur9yl,"Mediated JOLs",1,102,2023-08-22T17:09:43+00:00,2.0701489448547,1,versionA_stim.csv,ReadVersion.csv,Read,Read1,QUIET,WAR,Study1,M,8,29,Test,User,-,,Recall,Recall1,1811,,0,-1,-1,0,0,,1
w10134028,6l06cur9yl,"Mediated JOLs",1,103,2023-08-22T17:09:45+00:00,1.0924048423767,1,versionA_stim.csv,ReadVersion.csv,Read,Read1,MIRROR,MAROON,Study1,U,36,38,Test,User,-,,Recall,Recall1,846,,0,-1,-1,0,0,,1
w10134028,6l06cur9yl,"Mediated JOLs",1,104,2023-08-22T17:09:47+00:00,2.5338001251221,1,versionA_stim.csv,ReadVersion.csv,Read,Read1,MULE,DONKEY,Study1,F,30,32,Test,User,-,,Recall,Recall1,2278,deer,40,1383,1943,0,0,,1
w10134028,6l06cur9yl,"Mediated JOLs",1,105,2023-08-22T17:09:48+00:00,1.0284290313721,1,versionA_stim.csv,ReadVersion.csv,Read,Read1,SILK,ROUGH,Study1,M,10,49,Test,User,-,,Recall,Recall1,732,,0,-1,-1,0,0,,1
w10134028,6l06cur9yl,"Mediated JOLs",1,106,2023-08-22T17:10:00+00:00,11.761237859726,1,versionA_stim.csv,ReadVersion.csv,Read,Read1,,,,,,0,Instruct,-,10,"You will now be presented with a new set of word pairs. Please study each pair. Remember that your memory will be tested! When finished, press Enter to move to the next pair.",Initial_Instruct,Instruct4,11499,,,-1,-1,,,,1
w10134028,6l06cur9yl,"Mediated JOLs",1,107,2023-08-22T17:10:04+00:00,4.6710150241852,1,versionA_stim.csv,ReadVersion.csv,Read,Read1,,,,,,0,Instruct,User,-,"Press Enter when you are readty to begin",,Instruct11,4392,,,-1,-1,,,,1
w10134028,6l06cur9yl,"Mediated JOLs",1,108,2023-08-22T17:10:07+00:00,2.2636611461639,1,versionA_stim.csv,ReadVersion.csv,Read,Read1,MALT,CHOCOLATE,BUFFER2,Buffer,53,52,Study,User,-,,Study/JOL,BUFFER2,1940,,,-1,-1,,,,1
w10134028,6l06cur9yl,"Mediated JOLs",1,109,2023-08-22T17:10:08+00:00,1.2594528198242,1,versionA_stim.csv,ReadVersion.csv,Read,Read1,NOODLE,STRING,BUFFER4,Buffer,107,110,Study,User,-,,Study/JOL,BUFFER2,1014,,,-1,-1,,,,1
w10134028,6l06cur9yl,"Mediated JOLs",1,110,2023-08-22T17:10:10+00:00,1.7971081733704,1,versionA_stim.csv,ReadVersion.csv,Read,Read1,ICE,FROZEN,BUFFER4,Buffer,109,111,Study,User,-,,Study/JOL,BUFFER2,1555,,,-1,-1,,,,1
w10134028,6l06cur9yl,"Mediated JOLs",1,111,2023-08-22T17:10:12+00:00,1.7267279624939,1,versionA_stim.csv,ReadVersion.csv,Read,Read1,CAMP,ADVENTURE,BUFFER4,Buffer,110,107,Study,User,-,,Study/JOL,BUFFER2,1477,,,-1,-1,,,,1
w10134028,6l06cur9yl,"Mediated JOLs",1,112,2023-08-22T17:10:21+00:00,9.4202229976654,1,versionA_stim.csv,ReadVersion.csv,Read,Read1,CARROT,POTATO,BUFFER4,Buffer,106,109,Study,User,-,,Study/JOL,BUFFER2,9169,,,-1,-1,,,,1
w10134028,6l06cur9yl,"Mediated JOLs",1,113,2023-08-22T17:10:22+00:00,0.80709099769592,1,versionA_stim.csv,ReadVersion.csv,Read,Read1,STRONG,ACCIDENT,Study2,U,94,78,Study,User,-,,Study/JOL,"Study Phase2",549,,,-1,-1,,,,1
w10134028,6l06cur9yl,"Mediated JOLs",1,114,2023-08-22T17:10:23+00:00,0.73875093460083,1,versionA_stim.csv,ReadVersion.csv,Read,Read1,SNOW,SUMMER,Study2,M,61,76,Study,User,-,,Study/JOL,"Study Phase2",494,,,-1,-1,,,,1
w10134028,6l06cur9yl,"Mediated JOLs",1,115,2023-08-22T17:10:23+00:00,0.71624708175659,1,versionA_stim.csv,ReadVersion.csv,Read,Read1,HERD,COW,Study2,F,88,90,Study,User,-,,Study/JOL,"Study Phase2",462,,,-1,-1,,,,1
w10134028,6l06cur9yl,"Mediated JOLs",1,116,2023-08-22T17:10:24+00:00,0.69220900535583,1,versionA_stim.csv,ReadVersion.csv,Read,Read1,STOP,SCHOOL,Study2,M,62,86,Study,User,-,,Study/JOL,"Study Phase2",446,,,-1,-1,,,,1
w10134028,6l06cur9yl,"Mediated JOLs",1,117,2023-08-22T17:10:25+00:00,0.68449592590332,1,versionA_stim.csv,ReadVersion.csv,Read,Read1,BLAZE,FIRE,Study2,F,81,82,Study,User,-,,Study/JOL,"Study Phase2",442,,,-1,-1,,,,1
w10134028,6l06cur9yl,"Mediated JOLs",1,118,2023-08-22T17:10:25+00:00,0.65200209617615,1,versionA_stim.csv,ReadVersion.csv,Read,Read1,SMELL,EYES,Study2,M,65,81,Study,User,-,,Study/JOL,"Study Phase2",403,,,-1,-1,,,,1
w10134028,6l06cur9yl,"Mediated JOLs",1,119,2023-08-22T17:10:26+00:00,0.63593101501465,1,versionA_stim.csv,ReadVersion.csv,Read,Read1,LEAGUE,BASEBALL,Study2,F,84,83,Study,User,-,,Study/JOL,"Study Phase2",381,,,-1,-1,,,,1
w10134028,6l06cur9yl,"Mediated JOLs",1,120,2023-08-22T17:10:27+00:00,0.65166401863098,1,versionA_stim.csv,ReadVersion.csv,Read,Read1,HAPPY,CAR,Study2,U,92,73,Study,User,-,,Study/JOL,"Study Phase2",286,,,-1,-1,,,,1
w10134028,6l06cur9yl,"Mediated JOLs",1,121,2023-08-22T17:10:27+00:00,0.69395184516907,1,versionA_stim.csv,ReadVersion.csv,Read,Read1,KNOB,WINDOW,Study2,M,74,67,Study,User,-,,Study/JOL,"Study Phase2",428,,,-1,-1,,,,1
w10134028,6l06cur9yl,"Mediated JOLs",1,122,2023-08-22T17:10:28+00:00,0.74171113967896,1,versionA_stim.csv,ReadVersion.csv,Read,Read1,PEAK,VALLEY,Study2,M,73,80,Study,User,-,,Study/JOL,"Study Phase2",371,,,-1,-1,,,,1
w10134028,6l06cur9yl,"Mediated JOLs",1,123,2023-08-22T17:10:29+00:00,0.7182309627533,1,versionA_stim.csv,ReadVersion.csv,Read,Read1,CASH,LEG,Study2,U,105,62,Study,User,-,,Study/JOL,"Study Phase2",468,,,-1,-1,,,,1
w10134028,6l06cur9yl,"Mediated JOLs",1,124,2023-08-22T17:10:29+00:00,0.67457795143127,1,versionA_stim.csv,ReadVersion.csv,Read,Read1,THIGH,GRILL,Study2,M,72,64,Study,User,-,,Study/JOL,"Study Phase2",423,,,-1,-1,,,,1
w10134028,6l06cur9yl,"Mediated JOLs",1,125,2023-08-22T17:10:30+00:00,0.76932787895203,1,versionA_stim.csv,ReadVersion.csv,Read,Read1,WASP,BUG,Study2,F,89,85,Study,User,-,,Study/JOL,"Study Phase2",514,,,-1,-1,,,,1
w10134028,6l06cur9yl,"Mediated JOLs",1,126,2023-08-22T17:10:31+00:00,1.1156721115112,1,versionA_stim.csv,ReadVersion.csv,Read,Read1,BOTH,OUNCE,Study2,U,102,98,Study,User,-,,Study/JOL,"Study Phase2",871,,,-1,-1,,,,1
w10134028,6l06cur9yl,"Mediated JOLs",1,127,2023-08-22T17:10:32+00:00,0.87566494941711,1,versionA_stim.csv,ReadVersion.csv,Read,Read1,FEUD,FIGHT,Study2,F,86,97,Study,User,-,,Study/JOL,"Study Phase2",627,,,-1,-1,,,,1
w10134028,6l06cur9yl,"Mediated JOLs",1,128,2023-08-22T17:10:33+00:00,0.8704080581665,1,versionA_stim.csv,ReadVersion.csv,Read,Read1,DIETARY,SACK,Study2,U,97,74,Study,User,-,,Study/JOL,"Study Phase2",619,,,-1,-1,,,,1
w10134028,6l06cur9yl,"Mediated JOLs",1,129,2023-08-22T17:10:34+00:00,0.70793104171753,1,versionA_stim.csv,ReadVersion.csv,Read,Read1,HORNET,STING,Study2,F,85,95,Study,User,-,,Study/JOL,"Study Phase2",461,,,-1,-1,,,,1
w10134028,6l06cur9yl,"Mediated JOLs",1,130,2023-08-22T17:10:35+00:00,0.95108604431152,1,versionA_stim.csv,ReadVersion.csv,Read,Read1,DEATH,BUSINESS,Study2,U,99,92,Study,User,-,,Study/JOL,"Study Phase2",700,,,-1,-1,,,,1
w10134028,6l06cur9yl,"Mediated JOLs",1,131,2023-08-22T17:10:35+00:00,0.69797801971436,1,versionA_stim.csv,ReadVersion.csv,Read,Read1,ATTIRE,CLOTHES,Study2,F,79,89,Study,User,-,,Study/JOL,"Study Phase2",444,,,-1,-1,,,,1
w10134028,6l06cur9yl,"Mediated JOLs",1,132,2023-08-22T17:10:37+00:00,1.9487609863281,1,versionA_stim.csv,ReadVersion.csv,Read,Read1,INCENSE,SMELL,Study2,F,83,96,Study,User,-,,Study/JOL,"Study Phase2",1203,,,-1,-1,,,,1
w10134028,6l06cur9yl,"Mediated JOLs",1,133,2023-08-22T17:10:39+00:00,1.2843339443207,1,versionA_stim.csv,ReadVersion.csv,Read,Read1,KING,VASE,Study2,U,91,100,Study,User,-,,Study/JOL,"Study Phase2",1030,,,-1,-1,,,,1
w10134028,6l06cur9yl,"Mediated JOLs",1,134,2023-08-22T17:10:40+00:00,1.5711798667908,1,versionA_stim.csv,ReadVersion.csv,Read,Read1,ART,WOLF,Study2,U,93,75,Study,User,-,,Study/JOL,"Study Phase2",1323,,,-1,-1,,,,1
w10134028,6l06cur9yl,"Mediated JOLs",1,135,2023-08-22T17:10:41+00:00,1.0244891643524,1,versionA_stim.csv,ReadVersion.csv,Read,Read1,BENCH,HORN,Study2,U,98,79,Study,User,-,,Study/JOL,"Study Phase2",757,,,-1,-1,,,,1
w10134028,6l06cur9yl,"Mediated JOLs",1,136,2023-08-22T17:10:42+00:00,0.82187390327454,1,versionA_stim.csv,ReadVersion.csv,Read,Read1,CHISEL,HAMMER,Study2,F,78,69,Study,User,-,,Study/JOL,"Study Phase2",555,,,-1,-1,,,,1
w10134028,6l06cur9yl,"Mediated JOLs",1,137,2023-08-22T17:10:43+00:00,0.77977895736694,1,versionA_stim.csv,ReadVersion.csv,Read,Read1,CACTUS,PLANT,Study2,F,76,70,Study,User,-,,Study/JOL,"Study Phase2",521,,,-1,-1,,,,1
w10134028,6l06cur9yl,"Mediated JOLs",1,138,2023-08-22T17:10:44+00:00,0.92803597450256,1,versionA_stim.csv,ReadVersion.csv,Read,Read1,MIRROR,CHILDREN,Study2,U,104,88,Study,User,-,,Study/JOL,"Study Phase2",649,,,-1,-1,,,,1
w10134028,6l06cur9yl,"Mediated JOLs",1,139,2023-08-22T17:10:45+00:00,0.81947302818298,1,versionA_stim.csv,ReadVersion.csv,Read,Read1,LEASE,TOIL,Study2,U,101,66,Study,User,-,,Study/JOL,"Study Phase2",559,,,-1,-1,,,,1
w10134028,6l06cur9yl,"Mediated JOLs",1,140,2023-08-22T17:10:45+00:00,0.7732470035553,1,versionA_stim.csv,ReadVersion.csv,Read,Read1,CHOP,CUT,Study2,F,77,77,Study,User,-,,Study/JOL,"Study Phase2",527,,,-1,-1,,,,1
w10134028,6l06cur9yl,"Mediated JOLs",1,141,2023-08-22T17:10:46+00:00,0.85483312606812,1,versionA_stim.csv,ReadVersion.csv,Read,Read1,ISLAND,REALITY,Study2,M,64,71,Study,User,-,,Study/JOL,"Study Phase2",615,,,-1,-1,,,,1
w10134028,6l06cur9yl,"Mediated JOLs",1,142,2023-08-22T17:10:47+00:00,0.83772301673889,1,versionA_stim.csv,ReadVersion.csv,Read,Read1,CAVE,TRAP,Study2,M,70,87,Study,User,-,,Study/JOL,"Study Phase2",583,,,-1,-1,,,,1
w10134028,6l06cur9yl,"Mediated JOLs",1,143,2023-08-22T17:10:48+00:00,0.77567887306213,1,versionA_stim.csv,ReadVersion.csv,Read,Read1,SICK,HIDE,Study2,U,100,102,Study,User,-,,Study/JOL,"Study Phase2",522,,,-1,-1,,,,1
w10134028,6l06cur9yl,"Mediated JOLs",1,144,2023-08-22T17:10:48+00:00,0.68777704238892,1,versionA_stim.csv,ReadVersion.csv,Read,Read1,SUGAR,RIDDLE,Study2,U,95,106,Study,User,-,,Study/JOL,"Study Phase2",436,,,-1,-1,,,,1
w10134028,6l06cur9yl,"Mediated JOLs",1,145,2023-08-22T17:10:49+00:00,0.7107880115509,1,versionA_stim.csv,ReadVersion.csv,Read,Read1,BRIDGE,WATER,Study2,F,90,103,Study,User,-,,Study/JOL,"Study Phase2",461,,,-1,-1,,,,1
w10134028,6l06cur9yl,"Mediated JOLs",1,146,2023-08-22T17:10:50+00:00,0.86226201057434,1,versionA_stim.csv,ReadVersion.csv,Read,Read1,BASKET,OVEN,Study2,M,71,65,Study,User,-,,Study/JOL,"Study Phase2",181,,,-1,-1,,,,1
w10134028,6l06cur9yl,"Mediated JOLs",1,147,2023-08-22T17:10:51+00:00,0.89491105079651,1,versionA_stim.csv,ReadVersion.csv,Read,Read1,LAWYER,NURSE,Study2,M,66,94,Study,User,-,,Study/JOL,"Study Phase2",495,,,-1,-1,,,,1
w10134028,6l06cur9yl,"Mediated JOLs",1,148,2023-08-22T17:10:52+00:00,0.78596186637878,1,versionA_stim.csv,ReadVersion.csv,Read,Read1,CHERRY,RED,Study2,F,80,91,Study,User,-,,Study/JOL,"Study Phase2",532,,,-1,-1,,,,1
w10134028,6l06cur9yl,"Mediated JOLs",1,149,2023-08-22T17:10:53+00:00,0.98981499671936,1,versionA_stim.csv,ReadVersion.csv,Read,Read1,DOCUMENT,PAPER,Study2,F,82,101,Study,User,-,,Study/JOL,"Study Phase2",495,,,-1,-1,,,,1
w10134028,6l06cur9yl,"Mediated JOLs",1,150,2023-08-22T17:10:54+00:00,1.5141470432281,1,versionA_stim.csv,ReadVersion.csv,Read,Read1,SEED,RAKE,Study2,M,69,99,Study,User,-,,Study/JOL,"Study Phase2",677,,,-1,-1,,,,1
w10134028,6l06cur9yl,"Mediated JOLs",1,151,2023-08-22T17:10:55+00:00,0.86944103240967,1,versionA_stim.csv,ReadVersion.csv,Read,Read1,CHILL,COLD,Study2,F,87,84,Study,User,-,,Study/JOL,"Study Phase2",621,,,-1,-1,,,,1
w10134028,6l06cur9yl,"Mediated JOLs",1,152,2023-08-22T17:10:56+00:00,1.0565860271454,1,versionA_stim.csv,ReadVersion.csv,Read,Read1,FEATHER,HEAVY,Study2,M,68,72,Study,User,-,,Study/JOL,"Study Phase2",513,,,-1,-1,,,,1
w10134028,6l06cur9yl,"Mediated JOLs",1,153,2023-08-22T17:10:57+00:00,1.0371980667114,1,versionA_stim.csv,ReadVersion.csv,Read,Read1,COLLAR,PANTS,Study2,M,63,93,Study,User,-,,Study/JOL,"Study Phase2",475,,,-1,-1,,,,1
w10134028,6l06cur9yl,"Mediated JOLs",1,154,2023-08-22T17:10:58+00:00,0.92133283615112,1,versionA_stim.csv,ReadVersion.csv,Read,Read1,DRINK,SOAP,Study2,M,67,104,Study,User,-,,Study/JOL,"Study Phase2",651,,,-1,-1,,,,1
w10134028,6l06cur9yl,"Mediated JOLs",1,155,2023-08-22T17:10:59+00:00,1.2201189994812,1,versionA_stim.csv,ReadVersion.csv,Read,Read1,ARTERY,BRONZE,Study2,U,103,68,Study,User,-,,Study/JOL,"Study Phase2",729,,,-1,-1,,,,1
w10134028,6l06cur9yl,"Mediated JOLs",1,156,2023-08-22T17:11:00+00:00,0.88017201423645,1,versionA_stim.csv,ReadVersion.csv,Read,Read1,MUSCLE,RAZOR,Study2,M,75,63,Study,User,-,,Study/JOL,"Study Phase2",511,,,-1,-1,,,,1
w10134028,6l06cur9yl,"Mediated JOLs",1,157,2023-08-22T17:11:01+00:00,0.77158999443054,1,versionA_stim.csv,ReadVersion.csv,Read,Read1,PUSH,CLUTTER,Study2,U,96,105,Study,User,-,,Study/JOL,"Study Phase2",503,,,-1,-1,,,,1
w10134028,6l06cur9yl,"Mediated JOLs",1,158,2023-08-22T17:11:02+00:00,0.94005608558655,1,versionA_stim.csv,ReadVersion.csv,Read,Read1,TOOL,SHED,BUFFER3,Buffer,58,58,Study,User,-,,Study/JOL,BUFFER2,575,,,-1,-1,,,,1
w10134028,6l06cur9yl,"Mediated JOLs",1,159,2023-08-22T17:11:03+00:00,0.71899104118347,1,versionA_stim.csv,ReadVersion.csv,Read,Read1,OCTOBER,SPOOKY,BUFFER3,Buffer,60,60,Study,User,-,,Study/JOL,BUFFER2,462,,,-1,-1,,,,1
w10134028,6l06cur9yl,"Mediated JOLs",1,160,2023-08-22T17:11:03+00:00,0.79758501052856,1,versionA_stim.csv,ReadVersion.csv,Read,Read1,GEESE,GOOSE,BUFFER2,Buffer,51,55,Study,User,-,,Study/JOL,BUFFER2,538,,,-1,-1,,,,1
w10134028,6l06cur9yl,"Mediated JOLs",1,161,2023-08-22T17:11:04+00:00,0.9134509563446,1,versionA_stim.csv,ReadVersion.csv,Read,Read1,SHRIMP,FISH,BUFFER4,Buffer,108,108,Study,User,-,,Study/JOL,BUFFER2,444,,,-1,-1,,,,1
w10134028,6l06cur9yl,"Mediated JOLs",1,162,2023-08-22T17:11:06+00:00,1.1685118675232,1,versionA_stim.csv,ReadVersion.csv,Read,Read1,THING,STUFF,BUFFER2,Buffer,55,53,Study,User,-,,Study/JOL,BUFFER2,647,,,-1,-1,,,,1
w10134028,6l06cur9yl,"Mediated JOLs",1,163,2023-08-22T17:11:16+00:00,10.030157089233,1,versionA_stim.csv,ReadVersion.csv,Read,Read1,,,,,,0,Instruct,User,-,"You have completed this section. Please press Enter.",Filler_Instruction,Instruct2,9771,,,-1,-1,,,,1
w10134028,6l06cur9yl,"Mediated JOLs",1,164,2023-08-22T17:13:16+00:00,120.80148601532,1,versionA_stim.csv,ReadVersion.csv,Read,Read1,,,,,,0,FreeRecall,120,120,"Please list the 50 US states in alphabetical order. The task will automatically advance to the next screen after two minutes.",,Filler1,120001,"Alabama Alaska Arizona Arkansas California Colorado Connecticut Delaware Florida Georgia Hawaii Idaho Illinois Indiana Iowa Kansas Kentucky Louisiana Maine Maryland Massachusetts Michigan Minnesota Mississippi Missouri Montana Nebraska Nevada New Hampshire New Jersey New Mexico New York North Carolina North Dakota Ohio Oklahoma Oregon Pennsylvania Rhode Island South Carolina South Dakota Tennessee Texas Utah Vermont Virginia Washington West Virginia Wisconsin Wyoming",0,-1,-1,0,0,,1
w10134028,6l06cur9yl,"Mediated JOLs",1,165,2023-08-22T17:13:29+00:00,12.983537912369,1,versionA_stim.csv,ReadVersion.csv,Read,Read1,,,,,,0,Instruct,-,10,"You will now be presented with the first word from each of the previously studied item pairs. Please type the missing word. If you do not know the word, you may guess or press Enter to skip forward to the next pair.",,Instruct3,12579,,,-1,-1,,,,1
w10134028,6l06cur9yl,"Mediated JOLs",1,166,2023-08-22T17:13:52+00:00,23.005620002747,1,versionA_stim.csv,ReadVersion.csv,Read,Read1,PEAK,VALLEY,Study2,M,73,80,Test,User,-,,Recall,Recall2,22719,,0,-1,-1,0,0,,1
w10134028,6l06cur9yl,"Mediated JOLs",1,167,2023-08-22T17:14:00+00:00,7.2831671237946,1,versionA_stim.csv,ReadVersion.csv,Read,Read1,KNOB,WINDOW,Study2,M,74,67,Test,User,-,,Recall,Recall2,7017,,0,-1,-1,0,0,,1
w10134028,6l06cur9yl,"Mediated JOLs",1,168,2023-08-22T17:14:00+00:00,0.81078004837036,1,versionA_stim.csv,ReadVersion.csv,Read,Read1,SICK,HIDE,Study2,U,100,102,Test,User,-,,Recall,Recall2,555,,0,-1,-1,0,0,,1
w10134028,6l06cur9yl,"Mediated JOLs",1,169,2023-08-22T17:14:29+00:00,28.76337480545,1,versionA_stim.csv,ReadVersion.csv,Read,Read1,FEUD,FIGHT,Study2,F,86,97,Test,User,-,,Recall,Recall2,28510,,0,-1,-1,0,0,,1
w10134028,6l06cur9yl,"Mediated JOLs",1,170,2023-08-22T17:14:45+00:00,15.31285905838,1,versionA_stim.csv,ReadVersion.csv,Read,Read1,BASKET,OVEN,Study2,M,71,65,Test,User,-,,Recall,Recall2,15043,,0,-1,-1,0,0,,0.519
w10134028,6l06cur9yl,"Mediated JOLs",1,171,2023-08-22T17:14:45+00:00,0.47490906715393,1,versionA_stim.csv,ReadVersion.csv,Read,Read1,ISLAND,REALITY,Study2,M,64,71,Test,User,-,,Recall,Recall2,192,,0,-1,-1,0,0,,1
w10134028,6l06cur9yl,"Mediated JOLs",1,172,2023-08-22T17:14:45+00:00,0.46909189224243,1,versionA_stim.csv,ReadVersion.csv,Read,Read1,MIRROR,CHILDREN,Study2,U,104,88,Test,User,-,,Recall,Recall2,197,,0,-1,-1,0,0,,1
w10134028,6l06cur9yl,"Mediated JOLs",1,173,2023-08-22T17:14:46+00:00,0.4848210811615,1,versionA_stim.csv,ReadVersion.csv,Read,Read1,CHILL,COLD,Study2,F,87,84,Test,User,-,,Recall,Recall2,229,,0,-1,-1,0,0,,1
w10134028,6l06cur9yl,"Mediated JOLs",1,174,2023-08-22T17:14:46+00:00,0.32508301734924,1,versionA_stim.csv,ReadVersion.csv,Read,Read1,BENCH,HORN,Study2,U,98,79,Test,User,-,,Recall,Recall2,71,,0,-1,-1,0,0,,1
w10134028,6l06cur9yl,"Mediated JOLs",1,175,2023-08-22T17:14:47+00:00,0.48796105384827,1,versionA_stim.csv,ReadVersion.csv,Read,Read1,COLLAR,PANTS,Study2,M,63,93,Test,User,-,,Recall,Recall2,241,,0,-1,-1,0,0,,1
w10134028,6l06cur9yl,"Mediated JOLs",1,176,2023-08-22T17:14:47+00:00,0.47710490226746,1,versionA_stim.csv,ReadVersion.csv,Read,Read1,HORNET,STING,Study2,F,85,95,Test,User,-,,Recall,Recall2,218,,0,-1,-1,0,0,,1
w10134028,6l06cur9yl,"Mediated JOLs",1,177,2023-08-22T17:14:48+00:00,0.32987809181213,1,versionA_stim.csv,ReadVersion.csv,Read,Read1,DRINK,SOAP,Study2,M,67,104,Test,User,-,,Recall,Recall2,74,,0,-1,-1,0,0,,1
w10134028,6l06cur9yl,"Mediated JOLs",1,178,2023-08-22T17:14:48+00:00,0.52087187767029,1,versionA_stim.csv,ReadVersion.csv,Read,Read1,WASP,BUG,Study2,F,89,85,Test,User,-,,Recall,Recall2,270,,0,-1,-1,0,0,,1
w10134028,6l06cur9yl,"Mediated JOLs",1,179,2023-08-22T17:14:48+00:00,0.36559796333313,1,versionA_stim.csv,ReadVersion.csv,Read,Read1,HERD,COW,Study2,F,88,90,Test,User,-,,Recall,Recall2,106,,0,-1,-1,0,0,,1
w10134028,6l06cur9yl,"Mediated JOLs",1,180,2023-08-22T17:14:49+00:00,0.50273203849792,1,versionA_stim.csv,ReadVersion.csv,Read,Read1,SEED,RAKE,Study2,M,69,99,Test,User,-,,Recall,Recall2,244,,0,-1,-1,0,0,,1
w10134028,6l06cur9yl,"Mediated JOLs",1,181,2023-08-22T17:14:49+00:00,0.34524202346802,1,versionA_stim.csv,ReadVersion.csv,Read,Read1,STOP,SCHOOL,Study2,M,62,86,Test,User,-,,Recall,Recall2,86,,0,-1,-1,0,0,,1
w10134028,6l06cur9yl,"Mediated JOLs",1,182,2023-08-22T17:14:50+00:00,0.84811806678772,1,versionA_stim.csv,ReadVersion.csv,Read,Read1,BLAZE,FIRE,Study2,F,81,82,Test,User,-,,Recall,Recall2,571,,0,-1,-1,0,0,,1
w10134028,6l06cur9yl,"Mediated JOLs",1,183,2023-08-22T17:14:51+00:00,0.40240788459778,1,versionA_stim.csv,ReadVersion.csv,Read,Read1,INCENSE,SMELL,Study2,F,83,96,Test,User,-,,Recall,Recall2,143,,0,-1,-1,0,0,,1
w10134028,6l06cur9yl,"Mediated JOLs",1,184,2023-08-22T17:14:51+00:00,0.740718126297,1,versionA_stim.csv,ReadVersion.csv,Read,Read1,CASH,LEG,Study2,U,105,62,Test,User,-,,Recall,Recall2,426,,0,-1,-1,0,0,,1
w10134028,6l06cur9yl,"Mediated JOLs",1,185,2023-08-22T17:14:53+00:00,1.3808040618896,1,versionA_stim.csv,ReadVersion.csv,Read,Read1,DEATH,BUSINESS,Study2,U,99,92,Test,User,-,,Recall,Recall2,1014,,0,-1,-1,0,0,,1
w10134028,6l06cur9yl,"Mediated JOLs",1,186,2023-08-22T17:14:53+00:00,0.52110481262207,1,versionA_stim.csv,ReadVersion.csv,Read,Read1,BRIDGE,WATER,Study2,F,90,103,Test,User,-,,Recall,Recall2,257,,0,-1,-1,0,0,,1
w10134028,6l06cur9yl,"Mediated JOLs",1,187,2023-08-22T17:14:54+00:00,0.52972006797791,1,versionA_stim.csv,ReadVersion.csv,Read,Read1,KING,VASE,Study2,U,91,100,Test,User,-,,Recall,Recall2,217,,0,-1,-1,0,0,,1
w10134028,6l06cur9yl,"Mediated JOLs",1,188,2023-08-22T17:14:54+00:00,0.51083111763,1,versionA_stim.csv,ReadVersion.csv,Read,Read1,PUSH,CLUTTER,Study2,U,96,105,Test,User,-,,Recall,Recall2,254,,0,-1,-1,0,0,,1
w10134028,6l06cur9yl,"Mediated JOLs",1,189,2023-08-22T17:14:55+00:00,0.38036298751831,1,versionA_stim.csv,ReadVersion.csv,Read,Read1,CHOP,CUT,Study2,F,77,77,Test,User,-,,Recall,Recall2,128,,0,-1,-1,0,0,,1
w10134028,6l06cur9yl,"Mediated JOLs",1,190,2023-08-22T17:14:55+00:00,0.38165092468262,1,versionA_stim.csv,ReadVersion.csv,Read,Read1,LEASE,TOIL,Study2,U,101,66,Test,User,-,,Recall,Recall2,124,,0,-1,-1,0,0,,1
w10134028,6l06cur9yl,"Mediated JOLs",1,191,2023-08-22T17:14:55+00:00,0.40006589889526,1,versionA_stim.csv,ReadVersion.csv,Read,Read1,SNOW,SUMMER,Study2,M,61,76,Test,User,-,,Recall,Recall2,125,,0,-1,-1,0,0,,1
w10134028,6l06cur9yl,"Mediated JOLs",1,192,2023-08-22T17:14:56+00:00,0.40232515335083,1,versionA_stim.csv,ReadVersion.csv,Read,Read1,DOCUMENT,PAPER,Study2,F,82,101,Test,User,-,,Recall,Recall2,120,,0,-1,-1,0,0,,1
w10134028,6l06cur9yl,"Mediated JOLs",1,193,2023-08-22T17:14:56+00:00,0.41176581382751,1,versionA_stim.csv,ReadVersion.csv,Read,Read1,DIETARY,SACK,Study2,U,97,74,Test,User,-,,Recall,Recall2,142,,0,-1,-1,0,0,,1
w10134028,6l06cur9yl,"Mediated JOLs",1,194,2023-08-22T17:14:57+00:00,0.39545822143555,1,versionA_stim.csv,ReadVersion.csv,Read,Read1,SUGAR,RIDDLE,Study2,U,95,106,Test,User,-,,Recall,Recall2,119,,0,-1,-1,0,0,,1
w10134028,6l06cur9yl,"Mediated JOLs",1,195,2023-08-22T17:14:57+00:00,0.38414883613586,1,versionA_stim.csv,ReadVersion.csv,Read,Read1,CAVE,TRAP,Study2,M,70,87,Test,User,-,,Recall,Recall2,121,,0,-1,-1,0,0,,1
w10134028,6l06cur9yl,"Mediated JOLs",1,196,2023-08-22T17:14:58+00:00,1.1870300769806,1,versionA_stim.csv,ReadVersion.csv,Read,Read1,ATTIRE,CLOTHES,Study2,F,79,89,Test,User,-,,Recall,Recall2,382,,0,-1,-1,0,0,,1
w10134028,6l06cur9yl,"Mediated JOLs",1,197,2023-08-22T17:14:59+00:00,0.52077388763428,1,versionA_stim.csv,ReadVersion.csv,Read,Read1,STRONG,ACCIDENT,Study2,U,94,78,Test,User,-,,Recall,Recall2,247,,0,-1,-1,0,0,,1
w10134028,6l06cur9yl,"Mediated JOLs",1,198,2023-08-22T17:14:59+00:00,0.51648998260498,1,versionA_stim.csv,ReadVersion.csv,Read,Read1,HAPPY,CAR,Study2,U,92,73,Test,User,-,,Recall,Recall2,252,,0,-1,-1,0,0,,1
w10134028,6l06cur9yl,"Mediated JOLs",1,199,2023-08-22T17:15:00+00:00,0.49786305427551,1,versionA_stim.csv,ReadVersion.csv,Read,Read1,FEATHER,HEAVY,Study2,M,68,72,Test,User,-,,Recall,Recall2,187,,0,-1,-1,0,0,,1
w10134028,6l06cur9yl,"Mediated JOLs",1,200,2023-08-22T17:15:01+00:00,0.85127210617065,1,versionA_stim.csv,ReadVersion.csv,Read,Read1,CHISEL,HAMMER,Study2,F,78,69,Test,User,-,,Recall,Recall2,359,,0,-1,-1,0,0,,1
w10134028,6l06cur9yl,"Mediated JOLs",1,201,2023-08-22T17:15:01+00:00,0.5305118560791,1,versionA_stim.csv,ReadVersion.csv,Read,Read1,CACTUS,PLANT,Study2,F,76,70,Test,User,-,,Recall,Recall2,246,,0,-1,-1,0,0,,1
w10134028,6l06cur9yl,"Mediated JOLs",1,202,2023-08-22T17:15:01+00:00,0.37764120101929,1,versionA_stim.csv,ReadVersion.csv,Read,Read1,LAWYER,NURSE,Study2,M,66,94,Test,User,-,,Recall,Recall2,89,,0,-1,-1,0,0,,1
w10134028,6l06cur9yl,"Mediated JOLs",1,203,2023-08-22T17:15:02+00:00,0.5315477848053,1,versionA_stim.csv,ReadVersion.csv,Read,Read1,MUSCLE,RAZOR,Study2,M,75,63,Test,User,-,,Recall,Recall2,244,,0,-1,-1,0,0,,1
w10134028,6l06cur9yl,"Mediated JOLs",1,204,2023-08-22T17:15:02+00:00,0.3740119934082,1,versionA_stim.csv,ReadVersion.csv,Read,Read1,CHERRY,RED,Study2,F,80,91,Test,User,-,,Recall,Recall2,122,,0,-1,-1,0,0,,1
w10134028,6l06cur9yl,"Mediated JOLs",1,205,2023-08-22T17:15:03+00:00,0.3851912021637,1,versionA_stim.csv,ReadVersion.csv,Read,Read1,BOTH,OUNCE,Study2,U,102,98,Test,User,-,,Recall,Recall2,123,,0,-1,-1,0,0,,1
w10134028,6l06cur9yl,"Mediated JOLs",1,206,2023-08-22T17:15:03+00:00,0.3830349445343,1,versionA_stim.csv,ReadVersion.csv,Read,Read1,LEAGUE,BASEBALL,Study2,F,84,83,Test,User,-,,Recall,Recall2,135,,0,-1,-1,0,0,,1
w10134028,6l06cur9yl,"Mediated JOLs",1,207,2023-08-22T17:15:04+00:00,0.44871592521667,1,versionA_stim.csv,ReadVersion.csv,Read,Read1,SMELL,EYES,Study2,M,65,81,Test,User,-,,Recall,Recall2,196,,0,-1,-1,0,0,,1
w10134028,6l06cur9yl,"Mediated JOLs",1,208,2023-08-22T17:15:04+00:00,0.74232602119446,1,versionA_stim.csv,ReadVersion.csv,Read,Read1,ART,WOLF,Study2,U,93,75,Test,User,-,,Recall,Recall2,419,,0,-1,-1,0,0,,1
w10134028,6l06cur9yl,"Mediated JOLs",1,209,2023-08-22T17:15:05+00:00,0.41740202903748,1,versionA_stim.csv,ReadVersion.csv,Read,Read1,ARTERY,BRONZE,Study2,U,103,68,Test,User,-,,Recall,Recall2,140,,0,-1,-1,0,0,,1
w10134028,6l06cur9yl,"Mediated JOLs",1,210,2023-08-22T17:15:05+00:00,0.65548491477966,1,versionA_stim.csv,ReadVersion.csv,Read,Read1,THIGH,GRILL,Study2,M,72,64,Test,User,-,,Recall,Recall2,375,,0,-1,-1,0,0,,1
w10134028,6l06cur9yl,"Mediated JOLs",1,211,2023-08-22T17:15:09+00:00,3.2295579910278,1,versionA_stim.csv,ReadVersion.csv,Read,Read1,,,,,,0,Instruct,User,-,"You have completed this section. Please press Enter.",,Instruct7,2939,,,-1,-1,,,,1
w10134028,6l06cur9yl,"Mediated JOLs",1,212,2023-08-22T17:15:13+00:00,3.9288630485535,1,versionA_stim.csv,ReadVersion.csv,Read,Read1,,,,,,0,Instruct,User,-,"The following screen will ask you a few questions abour your experience today. You must complete these questions to receive credit.",,Instruct8,3670,,,-1,-1,,,,1
