Username,ID,ExperimentName,Session,Trial,Date,TimeDif,"Condition Number","Stimuli File","Order File","Condition Description","Condition Notes",Stimuli*Cue,Stimuli*Answer,Stimuli*Shuffle,"Stimuli*Stimuli Notes",Stimuli*Value,Procedure*Item,"Procedure*Trial Type","Procedure*Max Time","Procedure*Min Time",Procedure*Text,"Procedure*Procedure Notes",Procedure*Shuffle,Response*RT,Response*Response,Response*Accuracy,Response*RTfirst,Response*RTlast,Response*strictAcc,Response*lenientAcc,Response*focus,Response*Focus
w10137210_zr,rvcfbppa5a,"Mediated JOLs",1,1,2024-08-22T17:58:13+00:00,6.3480360507965,1,versionA_stim.csv,ReadVersion.csv,Read,Read1,,,,,,0,Instruct,-,5,"In this section, you will be presented with a series of word pairs. Please study each word pair! Your memory will be tested!",Initial_Instruct,Instruct1,6263,,,-1,-1,,,,1
w10137210_zr,rvcfbppa5a,"Mediated JOLs",1,2,2024-08-22T17:58:23+00:00,9.7188758850098,1,versionA_stim.csv,ReadVersion.csv,Read,Read1,,,,,,0,Instruct,User,-,"You will now begin. Press Enter when you are ready to begin.",,Instruct16,9587,,,-1,-1,,,,0.95
w10137210_zr,rvcfbppa5a,"Mediated JOLs",1,3,2024-08-22T17:58:26+00:00,2.9242050647736,1,versionA_stim.csv,ReadVersion.csv,Read,Read1,SCARE,FRIGHT,BUFFER1,Buffer,4,5,Study,User,-,,Study/JOL,BUFFER,2792,,,-1,-1,,,,1
w10137210_zr,rvcfbppa5a,"Mediated JOLs",1,4,2024-08-22T17:58:28+00:00,2.141793012619,1,versionA_stim.csv,ReadVersion.csv,Read,Read1,PITCHER,CATCHER,BUFFER1,Buffer,2,2,Study,User,-,,Study/JOL,BUFFER,2001,,,-1,-1,,,,1
w10137210_zr,rvcfbppa5a,"Mediated JOLs",1,5,2024-08-22T17:58:30+00:00,1.7392699718475,1,versionA_stim.csv,ReadVersion.csv,Read,Read1,SPACE,JAM,BUFFER1,Buffer,5,6,Study,User,-,,Study/JOL,BUFFER,1611,,,-1,-1,,,,1
w10137210_zr,rvcfbppa5a,"Mediated JOLs",1,6,2024-08-22T17:58:31+00:00,1.2310400009155,1,versionA_stim.csv,ReadVersion.csv,Read,Read1,PEANUT,BUTTER,BUFFER1,Buffer,3,4,Study,User,-,,Study/JOL,BUFFER,1098,,,-1,-1,,,,1
w10137210_zr,rvcfbppa5a,"Mediated JOLs",1,7,2024-08-22T17:58:33+00:00,2.5088529586792,1,versionA_stim.csv,ReadVersion.csv,Read,Read1,TREES,GREEN,BUFFER1,Buffer,1,3,Study,User,-,,Study/JOL,BUFFER,2380,,,-1,-1,,,,1
w10137210_zr,rvcfbppa5a,"Mediated JOLs",1,8,2024-08-22T17:58:35+00:00,1.4316880702972,1,versionA_stim.csv,ReadVersion.csv,Read,Read1,SOON,BELT,Study1,U,46,35,Study,User,-,,Study/JOL,"Study Phase",1294,,,-1,-1,,,,1
w10137210_zr,rvcfbppa5a,"Mediated JOLs",1,9,2024-08-22T17:58:37+00:00,1.630411863327,1,versionA_stim.csv,ReadVersion.csv,Read,Read1,WAGE,MONEY,Study1,F,22,7,Study,User,-,,Study/JOL,"Study Phase",1496,,,-1,-1,,,,1
w10137210_zr,rvcfbppa5a,"Mediated JOLs",1,10,2024-08-22T17:58:38+00:00,1.8701181411743,1,versionA_stim.csv,ReadVersion.csv,Read,Read1,BOX,BEACH,Study1,M,7,15,Study,User,-,,Study/JOL,"Study Phase",1729,,,-1,-1,,,,1
w10137210_zr,rvcfbppa5a,"Mediated JOLs",1,11,2024-08-22T17:58:40+00:00,1.5246169567108,1,versionA_stim.csv,ReadVersion.csv,Read,Read1,FINGER,WEDDING,Study1,M,17,14,Study,User,-,,Study/JOL,"Study Phase",1395,,,-1,-1,,,,1
w10137210_zr,rvcfbppa5a,"Mediated JOLs",1,12,2024-08-22T17:58:41+00:00,1.4603819847107,1,versionA_stim.csv,ReadVersion.csv,Read,Read1,NAP,SLEEP,Study1,F,29,23,Study,User,-,,Study/JOL,"Study Phase",1328,,,-1,-1,,,,1
w10137210_zr,rvcfbppa5a,"Mediated JOLs",1,13,2024-08-22T17:58:43+00:00,1.3927938938141,1,versionA_stim.csv,ReadVersion.csv,Read,Read1,SCALP,HEAD,Study1,F,23,43,Study,User,-,,Study/JOL,"Study Phase",1265,,,-1,-1,,,,1
w10137210_zr,rvcfbppa5a,"Mediated JOLs",1,14,2024-08-22T17:58:44+00:00,0.86711001396179,1,versionA_stim.csv,ReadVersion.csv,Read,Read1,TUNA,FISH,Study1,F,35,51,Study,User,-,,Study/JOL,"Study Phase",726,,,-1,-1,,,,1
w10137210_zr,rvcfbppa5a,"Mediated JOLs",1,15,2024-08-22T17:58:46+00:00,2.2796611785889,1,versionA_stim.csv,ReadVersion.csv,Read,Read1,BOUNCE,BAT,Study1,M,12,17,Study,User,-,,Study/JOL,"Study Phase",2137,,,-1,-1,,,,1
w10137210_zr,rvcfbppa5a,"Mediated JOLs",1,16,2024-08-22T17:58:50+00:00,4.5190348625183,1,versionA_stim.csv,ReadVersion.csv,Read,Read1,ROOT,PLANT,Study1,F,25,21,Study,User,-,,Study/JOL,"Study Phase",4383,,,-1,-1,,,,1
w10137210_zr,rvcfbppa5a,"Mediated JOLs",1,17,2024-08-22T17:58:54+00:00,3.4718420505524,1,versionA_stim.csv,ReadVersion.csv,Read,Read1,MEAT,KEYS,Study1,U,41,41,Study,User,-,,Study/JOL,"Study Phase",3337,,,-1,-1,,,,1
w10137210_zr,rvcfbppa5a,"Mediated JOLs",1,18,2024-08-22T17:58:58+00:00,4.3040070533752,1,versionA_stim.csv,ReadVersion.csv,Read,Read1,LISTEN,FICTION,Study1,U,44,19,Study,User,-,,Study/JOL,"Study Phase",4173,,,-1,-1,,,,1
w10137210_zr,rvcfbppa5a,"Mediated JOLs",1,19,2024-08-22T17:59:00+00:00,2.1906750202179,1,versionA_stim.csv,ReadVersion.csv,Read,Read1,SWAN,BIRD,Study1,F,26,11,Study,User,-,,Study/JOL,"Study Phase",2062,,,-1,-1,,,,1
w10137210_zr,rvcfbppa5a,"Mediated JOLs",1,20,2024-08-22T17:59:02+00:00,1.8059678077698,1,versionA_stim.csv,ReadVersion.csv,Read,Read1,BOTTLE,CRY,Study1,M,16,24,Study,User,-,,Study/JOL,"Study Phase",1675,,,-1,-1,,,,1
w10137210_zr,rvcfbppa5a,"Mediated JOLs",1,21,2024-08-22T17:59:04+00:00,1.7146990299225,1,versionA_stim.csv,ReadVersion.csv,Read,Read1,LITTER,TRASH,Study1,F,21,44,Study,User,-,,Study/JOL,"Study Phase",1471,,,-1,-1,,,,1
w10137210_zr,rvcfbppa5a,"Mediated JOLs",1,22,2024-08-22T17:59:05+00:00,1.5235381126404,1,versionA_stim.csv,ReadVersion.csv,Read,Read1,STRETCH,CLOTH,Study1,U,37,18,Study,User,-,,Study/JOL,"Study Phase",1393,,,-1,-1,,,,1
w10137210_zr,rvcfbppa5a,"Mediated JOLs",1,23,2024-08-22T17:59:07+00:00,1.4411790370941,1,versionA_stim.csv,ReadVersion.csv,Read,Read1,KEYS,ROD,Study1,U,45,49,Study,User,-,,Study/JOL,"Study Phase",1236,,,-1,-1,,,,1
w10137210_zr,rvcfbppa5a,"Mediated JOLs",1,24,2024-08-22T17:59:09+00:00,1.8705508708954,1,versionA_stim.csv,ReadVersion.csv,Read,Read1,FUZZY,BANG,Study1,U,50,48,Study,User,-,,Study/JOL,"Study Phase",1731,,,-1,-1,,,,1
w10137210_zr,rvcfbppa5a,"Mediated JOLs",1,25,2024-08-22T17:59:11+00:00,1.867495059967,1,versionA_stim.csv,ReadVersion.csv,Read,Read1,SIGN,TICK,Study1,U,47,9,Study,User,-,,Study/JOL,"Study Phase",1722,,,-1,-1,,,,1
w10137210_zr,rvcfbppa5a,"Mediated JOLs",1,26,2024-08-22T17:59:12+00:00,1.3670079708099,1,versionA_stim.csv,ReadVersion.csv,Read,Read1,WORD,SENTENCE,Study1,F,27,50,Study,User,-,,Study/JOL,"Study Phase",1206,,,-1,-1,,,,1
w10137210_zr,rvcfbppa5a,"Mediated JOLs",1,27,2024-08-22T17:59:14+00:00,1.5565540790558,1,versionA_stim.csv,ReadVersion.csv,Read,Read1,WHEEL,HORSE,Study1,M,14,26,Study,User,-,,Study/JOL,"Study Phase",1292,,,-1,-1,,,,1
w10137210_zr,rvcfbppa5a,"Mediated JOLs",1,28,2024-08-22T17:59:15+00:00,1.3788249492645,1,versionA_stim.csv,ReadVersion.csv,Read,Read1,MIRROR,MAROON,Study1,U,36,8,Study,User,-,,Study/JOL,"Study Phase",1132,,,-1,-1,,,,1
w10137210_zr,rvcfbppa5a,"Mediated JOLs",1,29,2024-08-22T17:59:17+00:00,2.5584568977356,1,versionA_stim.csv,ReadVersion.csv,Read,Read1,ORCHID,FLOWER,Study1,F,34,28,Study,User,-,,Study/JOL,"Study Phase",2398,,,-1,-1,,,,1
w10137210_zr,rvcfbppa5a,"Mediated JOLs",1,30,2024-08-22T17:59:20+00:00,2.3193981647491,1,versionA_stim.csv,ReadVersion.csv,Read,Read1,STRIPES,LION,Study1,M,6,27,Study,User,-,,Study/JOL,"Study Phase",2175,,,-1,-1,,,,1
w10137210_zr,rvcfbppa5a,"Mediated JOLs",1,31,2024-08-22T17:59:22+00:00,2.3071219921112,1,versionA_stim.csv,ReadVersion.csv,Read,Read1,AFFECTION,LOVE,Study1,F,31,47,Study,User,-,,Study/JOL,"Study Phase",2172,,,-1,-1,,,,1
w10137210_zr,rvcfbppa5a,"Mediated JOLs",1,32,2024-08-22T17:59:23+00:00,1.2767789363861,1,versionA_stim.csv,ReadVersion.csv,Read,Read1,COTTON,HARD,Study1,M,20,10,Study,User,-,,Study/JOL,"Study Phase",1141,,,-1,-1,,,,1
w10137210_zr,rvcfbppa5a,"Mediated JOLs",1,33,2024-08-22T17:59:25+00:00,1.9669139385223,1,versionA_stim.csv,ReadVersion.csv,Read,Read1,CRACKLE,ELECTION,Study1,U,39,30,Study,User,-,,Study/JOL,"Study Phase",1820,,,-1,-1,,,,1
w10137210_zr,rvcfbppa5a,"Mediated JOLs",1,34,2024-08-22T17:59:27+00:00,1.718355178833,1,versionA_stim.csv,ReadVersion.csv,Read,Read1,GIVE,STEAK,Study1,U,38,37,Study,User,-,,Study/JOL,"Study Phase",1587,,,-1,-1,,,,1
w10137210_zr,rvcfbppa5a,"Mediated JOLs",1,35,2024-08-22T17:59:28+00:00,1.401214838028,1,versionA_stim.csv,ReadVersion.csv,Read,Read1,SHELL,SHAKE,Study1,U,43,45,Study,User,-,,Study/JOL,"Study Phase",1266,,,-1,-1,,,,1
w10137210_zr,rvcfbppa5a,"Mediated JOLs",1,36,2024-08-22T17:59:30+00:00,1.656574010849,1,versionA_stim.csv,ReadVersion.csv,Read,Read1,HYGIENE,CLEAN,Study1,F,28,32,Study,User,-,,Study/JOL,"Study Phase",1522,,,-1,-1,,,,1
w10137210_zr,rvcfbppa5a,"Mediated JOLs",1,37,2024-08-22T17:59:32+00:00,1.746248960495,1,versionA_stim.csv,ReadVersion.csv,Read,Read1,TEMPERATURE,MORNING,Study1,U,48,25,Study,User,-,,Study/JOL,"Study Phase",1621,,,-1,-1,,,,1
w10137210_zr,rvcfbppa5a,"Mediated JOLs",1,38,2024-08-22T17:59:34+00:00,2.620227098465,1,versionA_stim.csv,ReadVersion.csv,Read,Read1,CARPET,CEILING,Study1,M,15,46,Study,User,-,,Study/JOL,"Study Phase",2482,,,-1,-1,,,,1
w10137210_zr,rvcfbppa5a,"Mediated JOLs",1,39,2024-08-22T17:59:37+00:00,2.3749439716339,1,versionA_stim.csv,ReadVersion.csv,Read,Read1,MULE,DONKEY,Study1,F,30,29,Study,User,-,,Study/JOL,"Study Phase",2244,,,-1,-1,,,,1
w10137210_zr,rvcfbppa5a,"Mediated JOLs",1,40,2024-08-22T17:59:45+00:00,7.6905889511108,1,versionA_stim.csv,ReadVersion.csv,Read,Read1,PIE,BIRTHDAY,Study1,M,9,33,Study,User,-,,Study/JOL,"Study Phase",7550,,,-1,-1,,,,1
w10137210_zr,rvcfbppa5a,"Mediated JOLs",1,41,2024-08-22T17:59:46+00:00,1.6574809551239,1,versionA_stim.csv,ReadVersion.csv,Read,Read1,QUIET,WAR,Study1,M,8,31,Study,User,-,,Study/JOL,"Study Phase",1522,,,-1,-1,,,,1
w10137210_zr,rvcfbppa5a,"Mediated JOLs",1,42,2024-08-22T17:59:48+00:00,1.6828591823578,1,versionA_stim.csv,ReadVersion.csv,Read,Read1,HAIR,TOOTH,Study1,M,19,39,Study,User,-,,Study/JOL,"Study Phase",1546,,,-1,-1,,,,1
w10137210_zr,rvcfbppa5a,"Mediated JOLs",1,43,2024-08-22T17:59:55+00:00,7.1073780059814,1,versionA_stim.csv,ReadVersion.csv,Read,Read1,MULE,DONKEY,Study1,F,24,22,Study,User,-,,Study/JOL,"Study Phase",6976,,,-1,-1,,,,1
w10137210_zr,rvcfbppa5a,"Mediated JOLs",1,44,2024-08-22T17:59:57+00:00,2.3500719070435,1,versionA_stim.csv,ReadVersion.csv,Read,Read1,MAZE,PHONE,Study1,U,42,40,Study,User,-,,Study/JOL,"Study Phase",2232,,,-1,-1,,,,1
w10137210_zr,rvcfbppa5a,"Mediated JOLs",1,45,2024-08-22T17:59:59+00:00,1.6412930488586,1,versionA_stim.csv,ReadVersion.csv,Read,Read1,SIP,DRINK,Study1,F,32,38,Study,User,-,,Study/JOL,"Study Phase",1506,,,-1,-1,,,,1
w10137210_zr,rvcfbppa5a,"Mediated JOLs",1,46,2024-08-22T18:00:01+00:00,1.6282410621643,1,versionA_stim.csv,ReadVersion.csv,Read,Read1,DARK,DAY,Study1,M,18,20,Study,User,-,,Study/JOL,"Study Phase",1497,,,-1,-1,,,,1
w10137210_zr,rvcfbppa5a,"Mediated JOLs",1,47,2024-08-22T18:00:02+00:00,1.6842138767242,1,versionA_stim.csv,ReadVersion.csv,Read,Read1,SYRUP,TREE,Study1,M,11,16,Study,User,-,,Study/JOL,"Study Phase",1552,,,-1,-1,,,,1
w10137210_zr,rvcfbppa5a,"Mediated JOLs",1,48,2024-08-22T18:00:04+00:00,1.5759279727936,1,versionA_stim.csv,ReadVersion.csv,Read,Read1,CREDIT,CARD,Study1,F,33,36,Study,User,-,,Study/JOL,"Study Phase",1443,,,-1,-1,,,,1
w10137210_zr,rvcfbppa5a,"Mediated JOLs",1,49,2024-08-22T18:00:05+00:00,1.4983241558075,1,versionA_stim.csv,ReadVersion.csv,Read,Read1,CAKE,HAND,Study1,U,49,42,Study,User,-,,Study/JOL,"Study Phase",1367,,,-1,-1,,,,1
w10137210_zr,rvcfbppa5a,"Mediated JOLs",1,50,2024-08-22T18:00:07+00:00,1.9371249675751,1,versionA_stim.csv,ReadVersion.csv,Read,Read1,SILK,ROUGH,Study1,M,10,13,Study,User,-,,Study/JOL,"Study Phase",1798,,,-1,-1,,,,1
w10137210_zr,rvcfbppa5a,"Mediated JOLs",1,51,2024-08-22T18:00:08+00:00,1.0529749393463,1,versionA_stim.csv,ReadVersion.csv,Read,Read1,DANCE,CIRCLE,Study1,M,13,12,Study,User,-,,Study/JOL,"Study Phase",915,,,-1,-1,,,,1
w10137210_zr,rvcfbppa5a,"Mediated JOLs",1,52,2024-08-22T18:00:10+00:00,1.5437729358673,1,versionA_stim.csv,ReadVersion.csv,Read,Read1,VEHICLE,CHARM,Study1,U,40,34,Study,User,-,,Study/JOL,"Study Phase",1415,,,-1,-1,,,,1
w10137210_zr,rvcfbppa5a,"Mediated JOLs",1,53,2024-08-22T18:00:11+00:00,1.3075339794159,1,versionA_stim.csv,ReadVersion.csv,Read,Read1,OCTOBER,SPOOKY,BUFFER3,Buffer,60,60,Study,User,-,,Study/JOL,BUFFER2,1163,,,-1,-1,,,,1
w10137210_zr,rvcfbppa5a,"Mediated JOLs",1,54,2024-08-22T18:00:12+00:00,1.2876360416412,1,versionA_stim.csv,ReadVersion.csv,Read,Read1,DAYS,WEAKS,BUFFER3,Buffer,56,61,Study,User,-,,Study/JOL,BUFFER2,1152,,,-1,-1,,,,1
w10137210_zr,rvcfbppa5a,"Mediated JOLs",1,55,2024-08-22T18:00:15+00:00,2.0245130062103,1,versionA_stim.csv,ReadVersion.csv,Read,Read1,SHERRIF,POLICE,BUFFER2,Buffer,52,55,Study,User,-,,Study/JOL,BUFFER2,1877,,,-1,-1,,,,1
w10137210_zr,rvcfbppa5a,"Mediated JOLs",1,56,2024-08-22T18:00:16+00:00,1.149806022644,1,versionA_stim.csv,ReadVersion.csv,Read,Read1,NOODLE,STRING,BUFFER4,Buffer,107,107,Study,User,-,,Study/JOL,BUFFER2,1013,,,-1,-1,,,,1
w10137210_zr,rvcfbppa5a,"Mediated JOLs",1,57,2024-08-22T18:00:17+00:00,1.4996209144592,1,versionA_stim.csv,ReadVersion.csv,Read,Read1,GEESE,GOOSE,BUFFER2,Buffer,51,52,Study,User,-,,Study/JOL,BUFFER2,1364,,,-1,-1,,,,1
w10137210_zr,rvcfbppa5a,"Mediated JOLs",1,58,2024-08-22T18:00:19+00:00,1.5810360908508,1,versionA_stim.csv,ReadVersion.csv,Read,Read1,,,,,,0,Instruct,User,-,"You have completed this section. Please press Enter.",Filler_Instruction,Instruct2,1446,,,-1,-1,,,,1
w10137210_zr,rvcfbppa5a,"Mediated JOLs",1,59,2024-08-22T18:02:19+00:00,120.276501894,1,versionA_stim.csv,ReadVersion.csv,Read,Read1,,,,,,0,FreeRecall,120,120,"Please list the 50 US states in alphabetical order. The task will automatically advance to the next screen after two minutes.",,Filler1,120003,"Alabama Alaska Arizona Arkansas California Colorado Connetiut Delaware Florida Georgia Hawaii Idaho Illinois Indiana Iowa Kansas Kentucky Louisiana Maine Maryland Massachuetts Michigan Minnesota Mississippi Missouri Montana Nebraska Nevada New hampshire New jersey New mexico new york north carlonia north dakota ohio oklahoma oregon pennsylvania rhode island south carolina south dakota tennesse texas utah vermont virgina wa",0,2346,119920,0,0,,1
w10137210_zr,rvcfbppa5a,"Mediated JOLs",1,60,2024-08-22T18:02:43+00:00,23.822559118271,1,versionA_stim.csv,ReadVersion.csv,Read,Read1,,,,,,0,Instruct,-,10,"You will now be presented with the first word from each of the previously studied item pairs. Please type the missing word. If you do not know the word, you may guess or press Enter to skip forward to the next pair.",,Instruct3,23649,,,-1,-1,,,,1
w10137210_zr,rvcfbppa5a,"Mediated JOLs",1,61,2024-08-22T18:02:46+00:00,3.4880630970001,1,versionA_stim.csv,ReadVersion.csv,Read,Read1,LISTEN,FICTION,Study1,U,44,19,Test,User,-,,Recall,Recall1,3346,Hear,0,2491,3209,0,0,,1
w10137210_zr,rvcfbppa5a,"Mediated JOLs",1,62,2024-08-22T18:02:50+00:00,3.544264793396,1,versionA_stim.csv,ReadVersion.csv,Read,Read1,SHELL,SHAKE,Study1,U,43,45,Test,User,-,,Recall,Recall1,3420,Shake,100,2748,3246,1,1,,1
w10137210_zr,rvcfbppa5a,"Mediated JOLs",1,63,2024-08-22T18:02:53+00:00,3.3478012084961,1,versionA_stim.csv,ReadVersion.csv,Read,Read1,SCALP,HEAD,Study1,F,23,43,Test,User,-,,Recall,Recall1,3208,,0,-1,-1,0,0,,1
w10137210_zr,rvcfbppa5a,"Mediated JOLs",1,64,2024-08-22T18:02:56+00:00,2.5552649497986,1,versionA_stim.csv,ReadVersion.csv,Read,Read1,WORD,SENTENCE,Study1,F,27,50,Test,User,-,,Recall,Recall1,2423,Sentence,100,1276,2208,1,1,,1
w10137210_zr,rvcfbppa5a,"Mediated JOLs",1,65,2024-08-22T18:02:58+00:00,2.0369648933411,1,versionA_stim.csv,ReadVersion.csv,Read,Read1,SIP,DRINK,Study1,F,32,38,Test,User,-,,Recall,Recall1,1896,drink,100,996,1667,1,1,,1
w10137210_zr,rvcfbppa5a,"Mediated JOLs",1,66,2024-08-22T18:03:00+00:00,2.4726331233978,1,versionA_stim.csv,ReadVersion.csv,Read,Read1,TUNA,FISH,Study1,F,35,51,Test,User,-,,Recall,Recall1,2336,fish,100,973,1860,1,1,,1
w10137210_zr,rvcfbppa5a,"Mediated JOLs",1,67,2024-08-22T18:03:02+00:00,2.1259469985962,1,versionA_stim.csv,ReadVersion.csv,Read,Read1,SIGN,TICK,Study1,U,47,9,Test,User,-,,Recall,Recall1,1997,,0,-1,-1,0,0,,1
w10137210_zr,rvcfbppa5a,"Mediated JOLs",1,68,2024-08-22T18:03:05+00:00,2.2502818107605,1,versionA_stim.csv,ReadVersion.csv,Read,Read1,KEYS,ROD,Study1,U,45,49,Test,User,-,,Recall,Recall1,2110,rod,100,1407,1640,1,1,,1
w10137210_zr,rvcfbppa5a,"Mediated JOLs",1,69,2024-08-22T18:03:08+00:00,3.0807251930237,1,versionA_stim.csv,ReadVersion.csv,Read,Read1,HYGIENE,CLEAN,Study1,F,28,32,Test,User,-,,Recall,Recall1,2946,,0,-1,-1,0,0,,1
w10137210_zr,rvcfbppa5a,"Mediated JOLs",1,70,2024-08-22T18:03:11+00:00,3.7303049564362,1,versionA_stim.csv,ReadVersion.csv,Read,Read1,BOX,BEACH,Study1,M,7,15,Test,User,-,,Recall,Recall1,3602,cut,25,2973,3301,0,0,,1
w10137210_zr,rvcfbppa5a,"Mediated JOLs",1,71,2024-08-22T18:03:13+00:00,1.9925138950348,1,versionA_stim.csv,ReadVersion.csv,Read,Read1,CREDIT,CARD,Study1,F,33,36,Test,User,-,,Recall,Recall1,1861,card,100,997,1684,1,1,,1
w10137210_zr,rvcfbppa5a,"Mediated JOLs",1,72,2024-08-22T18:03:16+00:00,2.8687720298767,1,versionA_stim.csv,ReadVersion.csv,Read,Read1,CARPET,CEILING,Study1,M,15,46,Test,User,-,,Recall,Recall1,2730,,0,-1,-1,0,0,,1
w10137210_zr,rvcfbppa5a,"Mediated JOLs",1,73,2024-08-22T18:03:20+00:00,3.5496950149536,1,versionA_stim.csv,ReadVersion.csv,Read,Read1,MAZE,PHONE,Study1,U,42,40,Test,User,-,,Recall,Recall1,3413,,0,-1,-1,0,0,,1
w10137210_zr,rvcfbppa5a,"Mediated JOLs",1,74,2024-08-22T18:03:23+00:00,2.6520321369171,1,versionA_stim.csv,ReadVersion.csv,Read,Read1,AFFECTION,LOVE,Study1,F,31,47,Test,User,-,,Recall,Recall1,2508,love,100,1560,2269,1,1,,1
w10137210_zr,rvcfbppa5a,"Mediated JOLs",1,75,2024-08-22T18:03:25+00:00,2.2717418670654,1,versionA_stim.csv,ReadVersion.csv,Read,Read1,WAGE,MONEY,Study1,F,22,7,Test,User,-,,Recall,Recall1,2137,money,100,1081,1849,1,1,,1
w10137210_zr,rvcfbppa5a,"Mediated JOLs",1,76,2024-08-22T18:03:28+00:00,3.2254590988159,1,versionA_stim.csv,ReadVersion.csv,Read,Read1,BOTTLE,CRY,Study1,M,16,24,Test,User,-,,Recall,Recall1,3085,,0,-1,-1,0,0,,1
w10137210_zr,rvcfbppa5a,"Mediated JOLs",1,77,2024-08-22T18:03:33+00:00,5.0532689094543,1,versionA_stim.csv,ReadVersion.csv,Read,Read1,TEMPERATURE,MORNING,Study1,U,48,25,Test,User,-,,Recall,Recall1,4924,,0,-1,-1,0,0,,1
w10137210_zr,rvcfbppa5a,"Mediated JOLs",1,78,2024-08-22T18:03:36+00:00,2.7243781089783,1,versionA_stim.csv,ReadVersion.csv,Read,Read1,DARK,DAY,Study1,M,18,20,Test,User,-,,Recall,Recall1,2588,light,0,1807,2361,0,0,,1
w10137210_zr,rvcfbppa5a,"Mediated JOLs",1,79,2024-08-22T18:03:38+00:00,2.077675819397,1,versionA_stim.csv,ReadVersion.csv,Read,Read1,GIVE,STEAK,Study1,U,38,37,Test,User,-,,Recall,Recall1,1943,take,66.666666666667,1180,1764,0,0,,1
w10137210_zr,rvcfbppa5a,"Mediated JOLs",1,80,2024-08-22T18:03:44+00:00,5.9023840427399,1,versionA_stim.csv,ReadVersion.csv,Read,Read1,BOUNCE,BAT,Study1,M,12,17,Test,User,-,,Recall,Recall1,5764,ball,57.142857142857,4602,5492,0,0,,1
w10137210_zr,rvcfbppa5a,"Mediated JOLs",1,81,2024-08-22T18:03:45+00:00,1.6441519260406,1,versionA_stim.csv,ReadVersion.csv,Read,Read1,LITTER,TRASH,Study1,F,21,44,Test,User,-,,Recall,Recall1,1505,,0,-1,-1,0,0,,1
w10137210_zr,rvcfbppa5a,"Mediated JOLs",1,82,2024-08-22T18:03:48+00:00,2.5182781219482,1,versionA_stim.csv,ReadVersion.csv,Read,Read1,SYRUP,TREE,Study1,M,11,16,Test,User,-,,Recall,Recall1,2392,sweet,44.444444444444,1301,2219,0,0,,1
w10137210_zr,rvcfbppa5a,"Mediated JOLs",1,83,2024-08-22T18:03:51+00:00,2.7546429634094,1,versionA_stim.csv,ReadVersion.csv,Read,Read1,SWAN,BIRD,Study1,F,26,11,Test,User,-,,Recall,Recall1,2620,bird,100,1151,1624,1,1,,1
w10137210_zr,rvcfbppa5a,"Mediated JOLs",1,84,2024-08-22T18:03:53+00:00,2.0320010185242,1,versionA_stim.csv,ReadVersion.csv,Read,Read1,ORCHID,FLOWER,Study1,F,34,28,Test,User,-,,Recall,Recall1,1895,flower,100,980,1707,1,1,,1
w10137210_zr,rvcfbppa5a,"Mediated JOLs",1,85,2024-08-22T18:03:56+00:00,3.344288110733,1,versionA_stim.csv,ReadVersion.csv,Read,Read1,CRACKLE,ELECTION,Study1,U,39,30,Test,User,-,,Recall,Recall1,3220,election,100,1568,2765,1,1,,1
w10137210_zr,rvcfbppa5a,"Mediated JOLs",1,86,2024-08-22T18:03:58+00:00,2.1248388290405,1,versionA_stim.csv,ReadVersion.csv,Read,Read1,STRETCH,CLOTH,Study1,U,37,18,Test,User,-,,Recall,Recall1,1992,,0,-1,-1,0,0,,1
w10137210_zr,rvcfbppa5a,"Mediated JOLs",1,87,2024-08-22T18:04:01+00:00,2.8996911048889,1,versionA_stim.csv,ReadVersion.csv,Read,Read1,MULE,DONKEY,Study1,F,30,29,Test,User,-,,Recall,Recall1,2766,,0,-1,-1,0,0,,1
w10137210_zr,rvcfbppa5a,"Mediated JOLs",1,88,2024-08-22T18:04:04+00:00,3.2233099937439,1,versionA_stim.csv,ReadVersion.csv,Read,Read1,VEHICLE,CHARM,Study1,U,40,34,Test,User,-,,Recall,Recall1,3084,,0,-1,-1,0,0,,1
w10137210_zr,rvcfbppa5a,"Mediated JOLs",1,89,2024-08-22T18:04:09+00:00,5.004998922348,1,versionA_stim.csv,ReadVersion.csv,Read,Read1,SOON,BELT,Study1,U,46,35,Test,User,-,,Recall,Recall1,4870,,0,-1,-1,0,0,,1
w10137210_zr,rvcfbppa5a,"Mediated JOLs",1,90,2024-08-22T18:04:15+00:00,5.5079901218414,1,versionA_stim.csv,ReadVersion.csv,Read,Read1,PIE,BIRTHDAY,Study1,M,9,33,Test,User,-,,Recall,Recall1,5372,birthday,100,1692,5036,1,1,,1
w10137210_zr,rvcfbppa5a,"Mediated JOLs",1,91,2024-08-22T18:04:17+00:00,2.3201038837433,1,versionA_stim.csv,ReadVersion.csv,Read,Read1,SILK,ROUGH,Study1,M,10,13,Test,User,-,,Recall,Recall1,2186,,0,-1,-1,0,0,,1
w10137210_zr,rvcfbppa5a,"Mediated JOLs",1,92,2024-08-22T18:04:22+00:00,4.7928659915924,1,versionA_stim.csv,ReadVersion.csv,Read,Read1,FINGER,WEDDING,Study1,M,17,14,Test,User,-,,Recall,Recall1,4660,hand,18.181818181818,3712,4476,0,0,,1
w10137210_zr,rvcfbppa5a,"Mediated JOLs",1,93,2024-08-22T18:04:24+00:00,1.6550590991974,1,versionA_stim.csv,ReadVersion.csv,Read,Read1,MULE,DONKEY,Study1,F,24,22,Test,User,-,,Recall,Recall1,1520,,0,-1,-1,0,0,,1
w10137210_zr,rvcfbppa5a,"Mediated JOLs",1,94,2024-08-22T18:04:26+00:00,2.0430638790131,1,versionA_stim.csv,ReadVersion.csv,Read,Read1,NAP,SLEEP,Study1,F,29,23,Test,User,-,,Recall,Recall1,1908,sleep,100,1133,1602,1,1,,1
w10137210_zr,rvcfbppa5a,"Mediated JOLs",1,95,2024-08-22T18:04:30+00:00,4.6551861763,1,versionA_stim.csv,ReadVersion.csv,Read,Read1,CAKE,HAND,Study1,U,49,42,Test,User,-,,Recall,Recall1,4524,happy,44.444444444444,3204,4060,0,0,,1
w10137210_zr,rvcfbppa5a,"Mediated JOLs",1,96,2024-08-22T18:04:32+00:00,1.687353849411,1,versionA_stim.csv,ReadVersion.csv,Read,Read1,FUZZY,BANG,Study1,U,50,48,Test,User,-,,Recall,Recall1,1553,,0,-1,-1,0,0,,1
w10137210_zr,rvcfbppa5a,"Mediated JOLs",1,97,2024-08-22T18:04:34+00:00,2.0478730201721,1,versionA_stim.csv,ReadVersion.csv,Read,Read1,STRIPES,LION,Study1,M,6,27,Test,User,-,,Recall,Recall1,1911,,0,-1,-1,0,0,,1
w10137210_zr,rvcfbppa5a,"Mediated JOLs",1,98,2024-08-22T18:04:39+00:00,5.1561570167542,1,versionA_stim.csv,ReadVersion.csv,Read,Read1,COTTON,HARD,Study1,M,20,10,Test,User,-,,Recall,Recall1,5021,stretch,18.181818181818,3436,4726,0,0,,1
w10137210_zr,rvcfbppa5a,"Mediated JOLs",1,99,2024-08-22T18:04:42+00:00,2.6457190513611,1,versionA_stim.csv,ReadVersion.csv,Read,Read1,MEAT,KEYS,Study1,U,41,41,Test,User,-,,Recall,Recall1,2504,,0,-1,-1,0,0,,1
w10137210_zr,rvcfbppa5a,"Mediated JOLs",1,100,2024-08-22T18:04:44+00:00,1.7690088748932,1,versionA_stim.csv,ReadVersion.csv,Read,Read1,ROOT,PLANT,Study1,F,25,21,Test,User,-,,Recall,Recall1,1638,,0,-1,-1,0,0,,1
w10137210_zr,rvcfbppa5a,"Mediated JOLs",1,101,2024-08-22T18:04:46+00:00,2.5294589996338,1,versionA_stim.csv,ReadVersion.csv,Read,Read1,HAIR,TOOTH,Study1,M,19,39,Test,User,-,,Recall,Recall1,2396,,0,-1,-1,0,0,,1
w10137210_zr,rvcfbppa5a,"Mediated JOLs",1,102,2024-08-22T18:04:49+00:00,2.4640121459961,1,versionA_stim.csv,ReadVersion.csv,Read,Read1,WHEEL,HORSE,Study1,M,14,26,Test,User,-,,Recall,Recall1,2333,,0,-1,-1,0,0,,1
w10137210_zr,rvcfbppa5a,"Mediated JOLs",1,103,2024-08-22T18:04:52+00:00,3.3094630241394,1,versionA_stim.csv,ReadVersion.csv,Read,Read1,QUIET,WAR,Study1,M,8,31,Test,User,-,,Recall,Recall1,3175,place,25,1923,2916,0,0,,1
w10137210_zr,rvcfbppa5a,"Mediated JOLs",1,104,2024-08-22T18:04:56+00:00,3.6062350273132,1,versionA_stim.csv,ReadVersion.csv,Read,Read1,MIRROR,MAROON,Study1,U,36,8,Test,User,-,,Recall,Recall1,3471,,0,-1,-1,0,0,,1
w10137210_zr,rvcfbppa5a,"Mediated JOLs",1,105,2024-08-22T18:04:59+00:00,3.280345916748,1,versionA_stim.csv,ReadVersion.csv,Read,Read1,DANCE,CIRCLE,Study1,M,13,12,Test,User,-,,Recall,Recall1,3136,,0,-1,-1,0,0,,1
w10137210_zr,rvcfbppa5a,"Mediated JOLs",1,106,2024-08-22T18:05:13+00:00,14.553547859192,1,versionA_stim.csv,ReadVersion.csv,Read,Read1,,,,,,0,Instruct,-,10,"You will now be presented with a new set of word pairs. Please study each pair. Remember that your memory will be tested! When finished, press Enter to move to the next pair.",Initial_Instruct,Instruct4,14398,,,-1,-1,,,,1
w10137210_zr,rvcfbppa5a,"Mediated JOLs",1,107,2024-08-22T18:05:14+00:00,1.0338652133942,1,versionA_stim.csv,ReadVersion.csv,Read,Read1,,,,,,0,Instruct,User,-,"Press Enter when you are readty to begin",,Instruct11,896,,,-1,-1,,,,1
w10137210_zr,rvcfbppa5a,"Mediated JOLs",1,108,2024-08-22T18:05:16+00:00,1.2839019298553,1,versionA_stim.csv,ReadVersion.csv,Read,Read1,TOOL,SHED,BUFFER3,Buffer,58,58,Study,User,-,,Study/JOL,BUFFER2,1149,,,-1,-1,,,,1
w10137210_zr,rvcfbppa5a,"Mediated JOLs",1,109,2024-08-22T18:05:17+00:00,1.5498239994049,1,versionA_stim.csv,ReadVersion.csv,Read,Read1,THING,STUFF,BUFFER2,Buffer,55,54,Study,User,-,,Study/JOL,BUFFER2,1408,,,-1,-1,,,,1
w10137210_zr,rvcfbppa5a,"Mediated JOLs",1,110,2024-08-22T18:05:19+00:00,1.5851540565491,1,versionA_stim.csv,ReadVersion.csv,Read,Read1,MONTH,YEAR,BUFFER3,Buffer,57,57,Study,User,-,,Study/JOL,BUFFER2,1451,,,-1,-1,,,,1
w10137210_zr,rvcfbppa5a,"Mediated JOLs",1,111,2024-08-22T18:05:20+00:00,1.673360824585,1,versionA_stim.csv,ReadVersion.csv,Read,Read1,MOON,SPACE,BUFFER2,Buffer,54,53,Study,User,-,,Study/JOL,BUFFER2,1543,,,-1,-1,,,,1
w10137210_zr,rvcfbppa5a,"Mediated JOLs",1,112,2024-08-22T18:05:22+00:00,1.3855941295624,1,versionA_stim.csv,ReadVersion.csv,Read,Read1,MALT,CHOCOLATE,BUFFER2,Buffer,53,56,Study,User,-,,Study/JOL,BUFFER2,1254,,,-1,-1,,,,1
w10137210_zr,rvcfbppa5a,"Mediated JOLs",1,113,2024-08-22T18:05:23+00:00,0.85920095443726,1,versionA_stim.csv,ReadVersion.csv,Read,Read1,SEED,RAKE,Study2,M,69,103,Study,User,-,,Study/JOL,"Study Phase2",715,,,-1,-1,,,,1
w10137210_zr,rvcfbppa5a,"Mediated JOLs",1,114,2024-08-22T18:05:25+00:00,1.8726201057434,1,versionA_stim.csv,ReadVersion.csv,Read,Read1,DEATH,BUSINESS,Study2,U,99,93,Study,User,-,,Study/JOL,"Study Phase2",1734,,,-1,-1,,,,1
w10137210_zr,rvcfbppa5a,"Mediated JOLs",1,115,2024-08-22T18:05:27+00:00,2.7301108837128,1,versionA_stim.csv,ReadVersion.csv,Read,Read1,FEATHER,HEAVY,Study2,M,68,98,Study,User,-,,Study/JOL,"Study Phase2",2596,,,-1,-1,,,,1
w10137210_zr,rvcfbppa5a,"Mediated JOLs",1,116,2024-08-22T18:05:30+00:00,2.2695670127869,1,versionA_stim.csv,ReadVersion.csv,Read,Read1,ATTIRE,CLOTHES,Study2,F,79,99,Study,User,-,,Study/JOL,"Study Phase2",2129,,,-1,-1,,,,1
w10137210_zr,rvcfbppa5a,"Mediated JOLs",1,117,2024-08-22T18:05:31+00:00,1.4136629104614,1,versionA_stim.csv,ReadVersion.csv,Read,Read1,SNOW,SUMMER,Study2,M,61,83,Study,User,-,,Study/JOL,"Study Phase2",1282,,,-1,-1,,,,1
w10137210_zr,rvcfbppa5a,"Mediated JOLs",1,118,2024-08-22T18:05:33+00:00,2.0925071239471,1,versionA_stim.csv,ReadVersion.csv,Read,Read1,KNOB,WINDOW,Study2,M,74,91,Study,User,-,,Study/JOL,"Study Phase2",1951,,,-1,-1,,,,1
w10137210_zr,rvcfbppa5a,"Mediated JOLs",1,119,2024-08-22T18:05:34+00:00,1.2148680686951,1,versionA_stim.csv,ReadVersion.csv,Read,Read1,SUGAR,RIDDLE,Study2,U,95,94,Study,User,-,,Study/JOL,"Study Phase2",1048,,,-1,-1,,,,1
w10137210_zr,rvcfbppa5a,"Mediated JOLs",1,120,2024-08-22T18:05:36+00:00,1.5606617927551,1,versionA_stim.csv,ReadVersion.csv,Read,Read1,BENCH,HORN,Study2,U,98,101,Study,User,-,,Study/JOL,"Study Phase2",1165,,,-1,-1,,,,1
w10137210_zr,rvcfbppa5a,"Mediated JOLs",1,121,2024-08-22T18:05:37+00:00,1.3590140342712,1,versionA_stim.csv,ReadVersion.csv,Read,Read1,CHISEL,HAMMER,Study2,F,78,66,Study,User,-,,Study/JOL,"Study Phase2",1229,,,-1,-1,,,,1
w10137210_zr,rvcfbppa5a,"Mediated JOLs",1,122,2024-08-22T18:05:39+00:00,1.5862369537354,1,versionA_stim.csv,ReadVersion.csv,Read,Read1,DRINK,SOAP,Study2,M,67,96,Study,User,-,,Study/JOL,"Study Phase2",1452,,,-1,-1,,,,1
w10137210_zr,rvcfbppa5a,"Mediated JOLs",1,123,2024-08-22T18:05:45+00:00,6.3450691699982,1,versionA_stim.csv,ReadVersion.csv,Read,Read1,HORNET,STING,Study2,F,85,71,Study,User,-,,Study/JOL,"Study Phase2",6213,,,-1,-1,,,,1
w10137210_zr,rvcfbppa5a,"Mediated JOLs",1,124,2024-08-22T18:05:47+00:00,1.4474430084229,1,versionA_stim.csv,ReadVersion.csv,Read,Read1,LEASE,TOIL,Study2,U,101,79,Study,User,-,,Study/JOL,"Study Phase2",1311,,,-1,-1,,,,1
w10137210_zr,rvcfbppa5a,"Mediated JOLs",1,125,2024-08-22T18:05:48+00:00,1.0652379989624,1,versionA_stim.csv,ReadVersion.csv,Read,Read1,PEAK,VALLEY,Study2,M,73,81,Study,User,-,,Study/JOL,"Study Phase2",933,,,-1,-1,,,,1
w10137210_zr,rvcfbppa5a,"Mediated JOLs",1,126,2024-08-22T18:05:49+00:00,1.546924829483,1,versionA_stim.csv,ReadVersion.csv,Read,Read1,ART,WOLF,Study2,U,93,67,Study,User,-,,Study/JOL,"Study Phase2",1405,,,-1,-1,,,,1
w10137210_zr,rvcfbppa5a,"Mediated JOLs",1,127,2024-08-22T18:05:51+00:00,1.5248901844025,1,versionA_stim.csv,ReadVersion.csv,Read,Read1,BRIDGE,WATER,Study2,F,90,74,Study,User,-,,Study/JOL,"Study Phase2",1398,,,-1,-1,,,,1
w10137210_zr,rvcfbppa5a,"Mediated JOLs",1,128,2024-08-22T18:05:52+00:00,1.3825449943542,1,versionA_stim.csv,ReadVersion.csv,Read,Read1,LAWYER,NURSE,Study2,M,66,86,Study,User,-,,Study/JOL,"Study Phase2",1248,,,-1,-1,,,,1
w10137210_zr,rvcfbppa5a,"Mediated JOLs",1,129,2024-08-22T18:05:54+00:00,1.4531328678131,1,versionA_stim.csv,ReadVersion.csv,Read,Read1,CHOP,CUT,Study2,F,77,85,Study,User,-,,Study/JOL,"Study Phase2",1325,,,-1,-1,,,,1
w10137210_zr,rvcfbppa5a,"Mediated JOLs",1,130,2024-08-22T18:05:55+00:00,1.3445601463318,1,versionA_stim.csv,ReadVersion.csv,Read,Read1,SMELL,EYES,Study2,M,65,65,Study,User,-,,Study/JOL,"Study Phase2",1207,,,-1,-1,,,,1
w10137210_zr,rvcfbppa5a,"Mediated JOLs",1,131,2024-08-22T18:05:56+00:00,1.5413298606873,1,versionA_stim.csv,ReadVersion.csv,Read,Read1,KING,VASE,Study2,U,91,64,Study,User,-,,Study/JOL,"Study Phase2",1409,,,-1,-1,,,,1
w10137210_zr,rvcfbppa5a,"Mediated JOLs",1,132,2024-08-22T18:05:58+00:00,1.5143711566925,1,versionA_stim.csv,ReadVersion.csv,Read,Read1,MIRROR,CHILDREN,Study2,U,104,89,Study,User,-,,Study/JOL,"Study Phase2",1380,,,-1,-1,,,,1
w10137210_zr,rvcfbppa5a,"Mediated JOLs",1,133,2024-08-22T18:05:59+00:00,1.2027947902679,1,versionA_stim.csv,ReadVersion.csv,Read,Read1,BLAZE,FIRE,Study2,F,81,63,Study,User,-,,Study/JOL,"Study Phase2",1073,,,-1,-1,,,,1
w10137210_zr,rvcfbppa5a,"Mediated JOLs",1,134,2024-08-22T18:06:01+00:00,1.9585220813751,1,versionA_stim.csv,ReadVersion.csv,Read,Read1,CHERRY,RED,Study2,F,80,80,Study,User,-,,Study/JOL,"Study Phase2",1827,,,-1,-1,,,,1
w10137210_zr,rvcfbppa5a,"Mediated JOLs",1,135,2024-08-22T18:06:03+00:00,1.4295980930328,1,versionA_stim.csv,ReadVersion.csv,Read,Read1,STOP,SCHOOL,Study2,M,62,75,Study,User,-,,Study/JOL,"Study Phase2",1285,,,-1,-1,,,,1
w10137210_zr,rvcfbppa5a,"Mediated JOLs",1,136,2024-08-22T18:06:04+00:00,1.4152729511261,1,versionA_stim.csv,ReadVersion.csv,Read,Read1,HAPPY,CAR,Study2,U,92,77,Study,User,-,,Study/JOL,"Study Phase2",1247,,,-1,-1,,,,1
w10137210_zr,rvcfbppa5a,"Mediated JOLs",1,137,2024-08-22T18:06:06+00:00,1.5987119674683,1,versionA_stim.csv,ReadVersion.csv,Read,Read1,THIGH,GRILL,Study2,M,72,100,Study,User,-,,Study/JOL,"Study Phase2",1471,,,-1,-1,,,,1
w10137210_zr,rvcfbppa5a,"Mediated JOLs",1,138,2024-08-22T18:06:07+00:00,1.4662919044495,1,versionA_stim.csv,ReadVersion.csv,Read,Read1,CHILL,COLD,Study2,F,87,78,Study,User,-,,Study/JOL,"Study Phase2",1330,,,-1,-1,,,,1
w10137210_zr,rvcfbppa5a,"Mediated JOLs",1,139,2024-08-22T18:06:09+00:00,1.7769980430603,1,versionA_stim.csv,ReadVersion.csv,Read,Read1,DIETARY,SACK,Study2,U,97,72,Study,User,-,,Study/JOL,"Study Phase2",1646,,,-1,-1,,,,1
w10137210_zr,rvcfbppa5a,"Mediated JOLs",1,140,2024-08-22T18:06:10+00:00,1.3177790641785,1,versionA_stim.csv,ReadVersion.csv,Read,Read1,ISLAND,REALITY,Study2,M,64,106,Study,User,-,,Study/JOL,"Study Phase2",1181,,,-1,-1,,,,1
w10137210_zr,rvcfbppa5a,"Mediated JOLs",1,141,2024-08-22T18:06:12+00:00,2.0023260116577,1,versionA_stim.csv,ReadVersion.csv,Read,Read1,CACTUS,PLANT,Study2,F,76,84,Study,User,-,,Study/JOL,"Study Phase2",1863,,,-1,-1,,,,1
w10137210_zr,rvcfbppa5a,"Mediated JOLs",1,142,2024-08-22T18:06:14+00:00,1.6159598827362,1,versionA_stim.csv,ReadVersion.csv,Read,Read1,COLLAR,PANTS,Study2,M,63,87,Study,User,-,,Study/JOL,"Study Phase2",1481,,,-1,-1,,,,1
w10137210_zr,rvcfbppa5a,"Mediated JOLs",1,143,2024-08-22T18:06:15+00:00,1.662013053894,1,versionA_stim.csv,ReadVersion.csv,Read,Read1,STRONG,ACCIDENT,Study2,U,94,70,Study,User,-,,Study/JOL,"Study Phase2",1526,,,-1,-1,,,,1
w10137210_zr,rvcfbppa5a,"Mediated JOLs",1,144,2024-08-22T18:06:16+00:00,0.82089304924011,1,versionA_stim.csv,ReadVersion.csv,Read,Read1,HERD,COW,Study2,F,88,73,Study,User,-,,Study/JOL,"Study Phase2",689,,,-1,-1,,,,1
w10137210_zr,rvcfbppa5a,"Mediated JOLs",1,145,2024-08-22T18:06:19+00:00,2.7500030994415,1,versionA_stim.csv,ReadVersion.csv,Read,Read1,CAVE,TRAP,Study2,M,70,88,Study,User,-,,Study/JOL,"Study Phase2",2612,,,-1,-1,,,,1
w10137210_zr,rvcfbppa5a,"Mediated JOLs",1,146,2024-08-22T18:06:21+00:00,1.5489349365234,1,versionA_stim.csv,ReadVersion.csv,Read,Read1,DOCUMENT,PAPER,Study2,F,82,105,Study,User,-,,Study/JOL,"Study Phase2",1416,,,-1,-1,,,,1
w10137210_zr,rvcfbppa5a,"Mediated JOLs",1,147,2024-08-22T18:06:21+00:00,0.80829191207886,1,versionA_stim.csv,ReadVersion.csv,Read,Read1,MUSCLE,RAZOR,Study2,M,75,92,Study,User,-,,Study/JOL,"Study Phase2",667,,,-1,-1,,,,1
w10137210_zr,rvcfbppa5a,"Mediated JOLs",1,148,2024-08-22T18:06:23+00:00,2.005184173584,1,versionA_stim.csv,ReadVersion.csv,Read,Read1,PUSH,CLUTTER,Study2,U,96,68,Study,User,-,,Study/JOL,"Study Phase2",1875,,,-1,-1,,,,1
w10137210_zr,rvcfbppa5a,"Mediated JOLs",1,149,2024-08-22T18:06:24+00:00,0.93210887908936,1,versionA_stim.csv,ReadVersion.csv,Read,Read1,CASH,LEG,Study2,U,105,62,Study,User,-,,Study/JOL,"Study Phase2",799,,,-1,-1,,,,1
w10137210_zr,rvcfbppa5a,"Mediated JOLs",1,150,2024-08-22T18:06:27+00:00,2.2575309276581,1,versionA_stim.csv,ReadVersion.csv,Read,Read1,LEAGUE,BASEBALL,Study2,F,84,90,Study,User,-,,Study/JOL,"Study Phase2",2116,,,-1,-1,,,,1
w10137210_zr,rvcfbppa5a,"Mediated JOLs",1,151,2024-08-22T18:06:28+00:00,1.4578151702881,1,versionA_stim.csv,ReadVersion.csv,Read,Read1,FEUD,FIGHT,Study2,F,86,76,Study,User,-,,Study/JOL,"Study Phase2",1323,,,-1,-1,,,,1
w10137210_zr,rvcfbppa5a,"Mediated JOLs",1,152,2024-08-22T18:06:31+00:00,2.7922298908234,1,versionA_stim.csv,ReadVersion.csv,Read,Read1,SICK,HIDE,Study2,U,100,95,Study,User,-,,Study/JOL,"Study Phase2",2655,,,-1,-1,,,,1
w10137210_zr,rvcfbppa5a,"Mediated JOLs",1,153,2024-08-22T18:06:32+00:00,1.4191660881042,1,versionA_stim.csv,ReadVersion.csv,Read,Read1,BOTH,OUNCE,Study2,U,102,97,Study,User,-,,Study/JOL,"Study Phase2",1277,,,-1,-1,,,,1
w10137210_zr,rvcfbppa5a,"Mediated JOLs",1,154,2024-08-22T18:06:34+00:00,2.241662979126,1,versionA_stim.csv,ReadVersion.csv,Read,Read1,INCENSE,SMELL,Study2,F,83,102,Study,User,-,,Study/JOL,"Study Phase2",2100,,,-1,-1,,,,1
w10137210_zr,rvcfbppa5a,"Mediated JOLs",1,155,2024-08-22T18:06:36+00:00,1.8163919448853,1,versionA_stim.csv,ReadVersion.csv,Read,Read1,WASP,BUG,Study2,F,89,82,Study,User,-,,Study/JOL,"Study Phase2",1680,,,-1,-1,,,,1
w10137210_zr,rvcfbppa5a,"Mediated JOLs",1,156,2024-08-22T18:06:39+00:00,2.4107670783997,1,versionA_stim.csv,ReadVersion.csv,Read,Read1,ARTERY,BRONZE,Study2,U,103,104,Study,User,-,,Study/JOL,"Study Phase2",2276,,,-1,-1,,,,1
w10137210_zr,rvcfbppa5a,"Mediated JOLs",1,157,2024-08-22T18:06:42+00:00,3.7618238925934,1,versionA_stim.csv,ReadVersion.csv,Read,Read1,BASKET,OVEN,Study2,M,71,69,Study,User,-,,Study/JOL,"Study Phase2",3624,,,-1,-1,,,,1
w10137210_zr,rvcfbppa5a,"Mediated JOLs",1,158,2024-08-22T18:06:44+00:00,1.9726400375366,1,versionA_stim.csv,ReadVersion.csv,Read,Read1,ICE,FROZEN,BUFFER4,Buffer,109,109,Study,User,-,,Study/JOL,BUFFER2,1838,,,-1,-1,,,,1
w10137210_zr,rvcfbppa5a,"Mediated JOLs",1,159,2024-08-22T18:06:46+00:00,1.1200931072235,1,versionA_stim.csv,ReadVersion.csv,Read,Read1,CARROT,POTATO,BUFFER4,Buffer,106,110,Study,User,-,,Study/JOL,BUFFER2,985,,,-1,-1,,,,1
w10137210_zr,rvcfbppa5a,"Mediated JOLs",1,160,2024-08-22T18:06:47+00:00,1.6057419776917,1,versionA_stim.csv,ReadVersion.csv,Read,Read1,SPRING,MARCH,BUFFER3,Buffer,59,59,Study,User,-,,Study/JOL,BUFFER2,1474,,,-1,-1,,,,1
w10137210_zr,rvcfbppa5a,"Mediated JOLs",1,161,2024-08-22T18:06:49+00:00,1.4512820243835,1,versionA_stim.csv,ReadVersion.csv,Read,Read1,CAMP,ADVENTURE,BUFFER4,Buffer,110,108,Study,User,-,,Study/JOL,BUFFER2,1319,,,-1,-1,,,,1
w10137210_zr,rvcfbppa5a,"Mediated JOLs",1,162,2024-08-22T18:06:50+00:00,1.7314219474792,1,versionA_stim.csv,ReadVersion.csv,Read,Read1,SHRIMP,FISH,BUFFER4,Buffer,108,111,Study,User,-,,Study/JOL,BUFFER2,1601,,,-1,-1,,,,1
w10137210_zr,rvcfbppa5a,"Mediated JOLs",1,163,2024-08-22T18:06:51+00:00,1.0094039440155,1,versionA_stim.csv,ReadVersion.csv,Read,Read1,,,,,,0,Instruct,User,-,"You have completed this section. Please press Enter.",Filler_Instruction,Instruct2,870,,,-1,-1,,,,1
w10137210_zr,rvcfbppa5a,"Mediated JOLs",1,164,2024-08-22T18:08:52+00:00,120.28988909721,1,versionA_stim.csv,ReadVersion.csv,Read,Read1,,,,,,0,FreeRecall,120,120,"Please list the 50 US states in alphabetical order. The task will automatically advance to the next screen after two minutes.",,Filler1,120005,"Alabama alaska arizona arkansas california colorado conneticut delaware florida georgia hawaii idaho illinois indiana iowa kansas kentucky louisisan maine maryland massachuetts michigan ",0,3794,94589,0,0,,0.919
w10137210_zr,rvcfbppa5a,"Mediated JOLs",1,165,2024-08-22T18:09:42+00:00,50.264380931854,1,versionA_stim.csv,ReadVersion.csv,Read,Read1,,,,,,0,Instruct,-,10,"You will now be presented with the first word from each of the previously studied item pairs. Please type the missing word. If you do not know the word, you may guess or press Enter to skip forward to the next pair.",,Instruct3,50100,,,-1,-1,,,,1
w10137210_zr,rvcfbppa5a,"Mediated JOLs",1,166,2024-08-22T18:09:49+00:00,7.5006010532379,1,versionA_stim.csv,ReadVersion.csv,Read,Read1,DRINK,SOAP,Study2,M,67,96,Test,User,-,,Recall,Recall2,7352,bleach,20,2925,5903,0,0,,1
w10137210_zr,rvcfbppa5a,"Mediated JOLs",1,167,2024-08-22T18:09:55+00:00,5.1077029705048,1,versionA_stim.csv,ReadVersion.csv,Read,Read1,SUGAR,RIDDLE,Study2,U,95,94,Test,User,-,,Recall,Recall2,4972,syrup,18.181818181818,3743,4728,0,0,,1
w10137210_zr,rvcfbppa5a,"Mediated JOLs",1,168,2024-08-22T18:10:00+00:00,5.5025498867035,1,versionA_stim.csv,ReadVersion.csv,Read,Read1,LEAGUE,BASEBALL,Study2,F,84,90,Test,User,-,,Recall,Recall2,5364,pitch,0,3940,5018,0,0,,1
w10137210_zr,rvcfbppa5a,"Mediated JOLs",1,169,2024-08-22T18:10:04+00:00,4.0170180797577,1,versionA_stim.csv,ReadVersion.csv,Read,Read1,HORNET,STING,Study2,F,85,71,Test,User,-,,Recall,Recall2,3884,sting,100,1451,3756,1,1,,1
w10137210_zr,rvcfbppa5a,"Mediated JOLs",1,170,2024-08-22T18:10:29+00:00,24.836740016937,1,versionA_stim.csv,ReadVersion.csv,Read,Read1,ARTERY,BRONZE,Study2,U,103,104,Test,User,-,,Recall,Recall2,24695,,0,-1,-1,0,0,,1
w10137210_zr,rvcfbppa5a,"Mediated JOLs",1,171,2024-08-22T18:11:10+00:00,40.871262073517,1,versionA_stim.csv,ReadVersion.csv,Read,Read1,KING,VASE,Study2,U,91,64,Test,User,-,,Recall,Recall2,40723,,0,-1,-1,0,0,,1
w10137210_zr,rvcfbppa5a,"Mediated JOLs",1,172,2024-08-22T18:11:34+00:00,24.514501810074,1,versionA_stim.csv,ReadVersion.csv,Read,Read1,CAVE,TRAP,Study2,M,70,88,Test,User,-,,Recall,Recall2,24376,,0,-1,-1,0,0,,1
w10137210_zr,rvcfbppa5a,"Mediated JOLs",1,173,2024-08-22T18:11:35+00:00,0.8403651714325,1,versionA_stim.csv,ReadVersion.csv,Read,Read1,CHILL,COLD,Study2,F,87,78,Test,User,-,,Recall,Recall2,691,,0,-1,-1,0,0,,1
w10137210_zr,rvcfbppa5a,"Mediated JOLs",1,174,2024-08-22T18:11:38+00:00,2.6492578983307,1,versionA_stim.csv,ReadVersion.csv,Read,Read1,KNOB,WINDOW,Study2,M,74,91,Test,User,-,,Recall,Recall2,2504,,0,-1,-1,0,0,,1
w10137210_zr,rvcfbppa5a,"Mediated JOLs",1,175,2024-08-22T18:11:45+00:00,7.2684690952301,1,versionA_stim.csv,ReadVersion.csv,Read,Read1,BASKET,OVEN,Study2,M,71,69,Test,User,-,,Recall,Recall2,7135,,0,-1,-1,0,0,,1
w10137210_zr,rvcfbppa5a,"Mediated JOLs",1,176,2024-08-22T18:11:49+00:00,3.5308818817139,1,versionA_stim.csv,ReadVersion.csv,Read,Read1,CASH,LEG,Study2,U,105,62,Test,User,-,,Recall,Recall2,3405,,0,-1,-1,0,0,,1
w10137210_zr,rvcfbppa5a,"Mediated JOLs",1,177,2024-08-22T18:11:50+00:00,1.3511040210724,1,versionA_stim.csv,ReadVersion.csv,Read,Read1,BENCH,HORN,Study2,U,98,101,Test,User,-,,Recall,Recall2,1225,,0,-1,-1,0,0,,1
w10137210_zr,rvcfbppa5a,"Mediated JOLs",1,178,2024-08-22T18:11:51+00:00,0.90018105506897,1,versionA_stim.csv,ReadVersion.csv,Read,Read1,FEUD,FIGHT,Study2,F,86,76,Test,User,-,,Recall,Recall2,768,,0,-1,-1,0,0,,1
w10137210_zr,rvcfbppa5a,"Mediated JOLs",1,179,2024-08-22T18:12:04+00:00,13.32387804985,1,versionA_stim.csv,ReadVersion.csv,Read,Read1,CACTUS,PLANT,Study2,F,76,84,Test,User,-,,Recall,Recall2,13180,,0,-1,-1,0,0,,1
w10137210_zr,rvcfbppa5a,"Mediated JOLs",1,180,2024-08-22T18:12:09+00:00,5.1384718418121,1,versionA_stim.csv,ReadVersion.csv,Read,Read1,DEATH,BUSINESS,Study2,U,99,93,Test,User,-,,Recall,Recall2,5000,,0,-1,-1,0,0,,1
w10137210_zr,rvcfbppa5a,"Mediated JOLs",1,181,2024-08-22T18:12:29+00:00,19.745844125748,1,versionA_stim.csv,ReadVersion.csv,Read,Read1,SNOW,SUMMER,Study2,M,61,83,Test,User,-,,Recall,Recall2,19601,,0,-1,-1,0,0,,1
w10137210_zr,rvcfbppa5a,"Mediated JOLs",1,182,2024-08-22T18:12:34+00:00,4.5961489677429,1,versionA_stim.csv,ReadVersion.csv,Read,Read1,CHISEL,HAMMER,Study2,F,78,66,Test,User,-,,Recall,Recall2,4450,,0,-1,-1,0,0,,1
w10137210_zr,rvcfbppa5a,"Mediated JOLs",1,183,2024-08-22T18:12:38+00:00,4.7699570655823,1,versionA_stim.csv,ReadVersion.csv,Read,Read1,CHOP,CUT,Study2,F,77,85,Test,User,-,,Recall,Recall2,4624,xut,66.666666666667,1624,4402,0,0,,1
w10137210_zr,rvcfbppa5a,"Mediated JOLs",1,184,2024-08-22T18:12:40+00:00,1.3758189678192,1,versionA_stim.csv,ReadVersion.csv,Read,Read1,THIGH,GRILL,Study2,M,72,100,Test,User,-,,Recall,Recall2,1242,,0,-1,-1,0,0,,1
w10137210_zr,rvcfbppa5a,"Mediated JOLs",1,185,2024-08-22T18:12:43+00:00,3.6127238273621,1,versionA_stim.csv,ReadVersion.csv,Read,Read1,MUSCLE,RAZOR,Study2,M,75,92,Test,User,-,,Recall,Recall2,3485,,0,-1,-1,0,0,,1
w10137210_zr,rvcfbppa5a,"Mediated JOLs",1,186,2024-08-22T18:12:45+00:00,1.7562282085419,1,versionA_stim.csv,ReadVersion.csv,Read,Read1,ART,WOLF,Study2,U,93,67,Test,User,-,,Recall,Recall2,1619,,0,-1,-1,0,0,,1
w10137210_zr,rvcfbppa5a,"Mediated JOLs",1,187,2024-08-22T18:12:48+00:00,2.8202178478241,1,versionA_stim.csv,ReadVersion.csv,Read,Read1,MIRROR,CHILDREN,Study2,U,104,89,Test,User,-,,Recall,Recall2,2682,children,100,1026,2385,1,1,,1
w10137210_zr,rvcfbppa5a,"Mediated JOLs",1,188,2024-08-22T18:12:50+00:00,1.86550116539,1,versionA_stim.csv,ReadVersion.csv,Read,Read1,HERD,COW,Study2,F,88,73,Test,User,-,,Recall,Recall2,1731,,0,-1,-1,0,0,,1
w10137210_zr,rvcfbppa5a,"Mediated JOLs",1,189,2024-08-22T18:12:53+00:00,3.1535887718201,1,versionA_stim.csv,ReadVersion.csv,Read,Read1,STRONG,ACCIDENT,Study2,U,94,70,Test,User,-,,Recall,Recall2,3028,accident,100,1697,2813,1,1,,1
w10137210_zr,rvcfbppa5a,"Mediated JOLs",1,190,2024-08-22T18:13:23+00:00,29.784222126007,1,versionA_stim.csv,ReadVersion.csv,Read,Read1,FEATHER,HEAVY,Study2,M,68,98,Test,User,-,,Recall,Recall2,29624,,0,-1,-1,0,0,,1
w10137210_zr,rvcfbppa5a,"Mediated JOLs",1,191,2024-08-22T18:13:24+00:00,1.179771900177,1,versionA_stim.csv,ReadVersion.csv,Read,Read1,LEASE,TOIL,Study2,U,101,79,Test,User,-,,Recall,Recall2,1041,,0,-1,-1,0,0,,1
w10137210_zr,rvcfbppa5a,"Mediated JOLs",1,192,2024-08-22T18:13:27+00:00,3.3120009899139,1,versionA_stim.csv,ReadVersion.csv,Read,Read1,ATTIRE,CLOTHES,Study2,F,79,99,Test,User,-,,Recall,Recall2,3167,,0,-1,-1,0,0,,1
w10137210_zr,rvcfbppa5a,"Mediated JOLs",1,193,2024-08-22T18:13:30+00:00,2.7263331413269,1,versionA_stim.csv,ReadVersion.csv,Read,Read1,BOTH,OUNCE,Study2,U,102,97,Test,User,-,,Recall,Recall2,2599,,0,-1,-1,0,0,,1
w10137210_zr,rvcfbppa5a,"Mediated JOLs",1,194,2024-08-22T18:13:49+00:00,18.625422954559,1,versionA_stim.csv,ReadVersion.csv,Read,Read1,SMELL,EYES,Study2,M,65,65,Test,User,-,,Recall,Recall2,18479,eyes,100,3829,4324,1,1,,1
w10137210_zr,rvcfbppa5a,"Mediated JOLs",1,195,2024-08-22T18:14:01+00:00,11.950079917908,1,versionA_stim.csv,ReadVersion.csv,Read,Read1,PEAK,VALLEY,Study2,M,73,81,Test,User,-,,Recall,Recall2,11776,,0,-1,-1,0,0,,1
w10137210_zr,rvcfbppa5a,"Mediated JOLs",1,196,2024-08-22T18:14:04+00:00,2.9598591327667,1,versionA_stim.csv,ReadVersion.csv,Read,Read1,HAPPY,CAR,Study2,U,92,77,Test,User,-,,Recall,Recall2,2823,,0,-1,-1,0,0,,1
w10137210_zr,rvcfbppa5a,"Mediated JOLs",1,197,2024-08-22T18:14:18+00:00,14.607722043991,1,versionA_stim.csv,ReadVersion.csv,Read,Read1,WASP,BUG,Study2,F,89,82,Test,User,-,,Recall,Recall2,14479,,0,-1,-1,0,0,,1
w10137210_zr,rvcfbppa5a,"Mediated JOLs",1,198,2024-08-22T18:14:21+00:00,3.1480259895325,1,versionA_stim.csv,ReadVersion.csv,Read,Read1,SICK,HIDE,Study2,U,100,95,Test,User,-,,Recall,Recall2,3002,,0,-1,-1,0,0,,0.733
w10137210_zr,rvcfbppa5a,"Mediated JOLs",1,199,2024-08-22T18:14:24+00:00,3.1017329692841,1,versionA_stim.csv,ReadVersion.csv,Read,Read1,DIETARY,SACK,Study2,U,97,72,Test,User,-,,Recall,Recall2,2962,,0,-1,-1,0,0,,1
w10137210_zr,rvcfbppa5a,"Mediated JOLs",1,200,2024-08-22T18:14:26+00:00,1.4326779842377,1,versionA_stim.csv,ReadVersion.csv,Read,Read1,SEED,RAKE,Study2,M,69,103,Test,User,-,,Recall,Recall2,1276,,0,-1,-1,0,0,,1
w10137210_zr,rvcfbppa5a,"Mediated JOLs",1,201,2024-08-22T18:14:28+00:00,2.5067479610443,1,versionA_stim.csv,ReadVersion.csv,Read,Read1,LAWYER,NURSE,Study2,M,66,86,Test,User,-,,Recall,Recall2,2373,nurse,100,1517,2213,1,1,,1
w10137210_zr,rvcfbppa5a,"Mediated JOLs",1,202,2024-08-22T18:14:32+00:00,3.7350840568542,1,versionA_stim.csv,ReadVersion.csv,Read,Read1,BLAZE,FIRE,Study2,F,81,63,Test,User,-,,Recall,Recall2,3600,fire,100,1035,1580,1,1,,1
w10137210_zr,rvcfbppa5a,"Mediated JOLs",1,203,2024-08-22T18:14:35+00:00,2.9281859397888,1,versionA_stim.csv,ReadVersion.csv,Read,Read1,INCENSE,SMELL,Study2,F,83,102,Test,User,-,,Recall,Recall2,2788,smell,100,2019,2577,1,1,,1
w10137210_zr,rvcfbppa5a,"Mediated JOLs",1,204,2024-08-22T18:15:28+00:00,52.549452066422,1,versionA_stim.csv,ReadVersion.csv,Read,Read1,STOP,SCHOOL,Study2,M,62,75,Test,User,-,,Recall,Recall2,52416,,0,-1,-1,0,0,,1
w10137210_zr,rvcfbppa5a,"Mediated JOLs",1,205,2024-08-22T18:15:32+00:00,4.922404050827,1,versionA_stim.csv,ReadVersion.csv,Read,Read1,DOCUMENT,PAPER,Study2,F,82,105,Test,User,-,,Recall,Recall2,4778,paper,100,2751,4389,1,1,,1
w10137210_zr,rvcfbppa5a,"Mediated JOLs",1,206,2024-08-22T18:15:56+00:00,23.344304800034,1,versionA_stim.csv,ReadVersion.csv,Read,Read1,CHERRY,RED,Study2,F,80,80,Test,User,-,,Recall,Recall2,23203,red,100,22459,22839,1,1,,1
w10137210_zr,rvcfbppa5a,"Mediated JOLs",1,207,2024-08-22T18:15:57+00:00,0.7820200920105,1,versionA_stim.csv,ReadVersion.csv,Read,Read1,ISLAND,REALITY,Study2,M,64,106,Test,User,-,,Recall,Recall2,638,,0,-1,-1,0,0,,1
w10137210_zr,rvcfbppa5a,"Mediated JOLs",1,208,2024-08-22T18:15:57+00:00,0.54321503639221,1,versionA_stim.csv,ReadVersion.csv,Read,Read1,PUSH,CLUTTER,Study2,U,96,68,Test,User,-,,Recall,Recall2,410,,0,-1,-1,0,0,,1
w10137210_zr,rvcfbppa5a,"Mediated JOLs",1,209,2024-08-22T18:15:58+00:00,0.96705484390259,1,versionA_stim.csv,ReadVersion.csv,Read,Read1,COLLAR,PANTS,Study2,M,63,87,Test,User,-,,Recall,Recall2,831,,0,-1,-1,0,0,,1
w10137210_zr,rvcfbppa5a,"Mediated JOLs",1,210,2024-08-22T18:16:00+00:00,2.0884070396423,1,versionA_stim.csv,ReadVersion.csv,Read,Read1,BRIDGE,WATER,Study2,F,90,74,Test,User,-,,Recall,Recall2,1948,,0,-1,-1,0,0,,1
w10137210_zr,rvcfbppa5a,"Mediated JOLs",1,211,2024-08-22T18:16:18+00:00,18.039570093155,1,versionA_stim.csv,ReadVersion.csv,Read,Read1,,,,,,0,Instruct,User,-,"You have completed this section. Please press Enter.",,Instruct7,17907,,,-1,-1,,,,1
w10137210_zr,rvcfbppa5a,"Mediated JOLs",1,212,2024-08-22T18:16:20+00:00,1.7353510856628,1,versionA_stim.csv,ReadVersion.csv,Read,Read1,,,,,,0,Instruct,User,-,"The following screen will ask you a few questions abour your experience today. You must complete these questions to receive credit.",,Instruct8,1599,,,-1,-1,,,,1
