Username,ID,ExperimentName,Session,Trial,Date,TimeDif,"Condition Number","Stimuli File","Order File","Condition Description","Condition Notes",Stimuli*Cue,Stimuli*Answer,Stimuli*Shuffle,"Stimuli*Stimuli Notes",Stimuli*Value,Procedure*Item,"Procedure*Trial Type","Procedure*Max Time","Procedure*Min Time",Procedure*Text,"Procedure*Procedure Notes",Procedure*Shuffle,Response*RT,Response*Response,Response*Accuracy,Response*RTfirst,Response*RTlast,Response*strictAcc,Response*lenientAcc,Response*focus,Response*Focus
10120923LH,blysflro0p,"Mediated JOLs",1,1,2023-09-26T14:42:36+00:00,6.3009650707245,3,versionB_stim.csv,ReadVersion.csv,Read,Read2,,,,,,0,Instruct,-,5,"In this section, you will be presented with a series of word pairs. Please study each word pair! Your memory will be tested!",Initial_Instruct,Instruct1,6132,,,-1,-1,,,,1
10120923LH,blysflro0p,"Mediated JOLs",1,2,2023-09-26T14:42:38+00:00,1.5553328990936,3,versionB_stim.csv,ReadVersion.csv,Read,Read2,,,,,,0,Instruct,User,-,"You will now begin. Press Enter when you are ready to begin.",,Instruct16,1320,,,-1,-1,,,,1
10120923LH,blysflro0p,"Mediated JOLs",1,3,2023-09-26T14:42:39+00:00,1.5870180130005,3,versionB_stim.csv,ReadVersion.csv,Read,Read2,TOOL,SHED,BUFFER3,Buffer,3,4,Study,User,-,,Study/JOL,BUFFER,1435,,,-1,-1,,,,1
10120923LH,blysflro0p,"Mediated JOLs",1,4,2023-09-26T14:42:43+00:00,3.4818880558014,3,versionB_stim.csv,ReadVersion.csv,Read,Read2,DAYS,WEAKS,BUFFER3,Buffer,1,5,Study,User,-,,Study/JOL,BUFFER,3306,,,-1,-1,,,,1
10120923LH,blysflro0p,"Mediated JOLs",1,5,2023-09-26T14:42:44+00:00,1.8111779689789,3,versionB_stim.csv,ReadVersion.csv,Read,Read2,MONTH,YEAR,BUFFER3,Buffer,2,6,Study,User,-,,Study/JOL,BUFFER,1442,,,-1,-1,,,,1
10120923LH,blysflro0p,"Mediated JOLs",1,6,2023-09-26T14:42:46+00:00,1.2193970680237,3,versionB_stim.csv,ReadVersion.csv,Read,Read2,SPRING,MARCH,BUFFER3,Buffer,4,2,Study,User,-,,Study/JOL,BUFFER,1088,,,-1,-1,,,,1
10120923LH,blysflro0p,"Mediated JOLs",1,7,2023-09-26T14:42:47+00:00,1.0119869709015,3,versionB_stim.csv,ReadVersion.csv,Read,Read2,OCTOBER,SPOOKY,BUFFER3,Buffer,5,3,Study,User,-,,Study/JOL,BUFFER,860,,,-1,-1,,,,1
10120923LH,blysflro0p,"Mediated JOLs",1,8,2023-09-26T14:42:49+00:00,1.915668964386,3,versionB_stim.csv,ReadVersion.csv,Read,Read2,DRINK,SOAP,Study2,M,12,12,Study,User,-,,Study/JOL,"Study Phase",1662,,,-1,-1,,,,1
10120923LH,blysflro0p,"Mediated JOLs",1,9,2023-09-26T14:42:52+00:00,3.0707261562347,3,versionB_stim.csv,ReadVersion.csv,Read,Read2,LAWYER,NURSE,Study2,M,11,33,Study,User,-,,Study/JOL,"Study Phase",1717,,,-1,-1,,,,1
10120923LH,blysflro0p,"Mediated JOLs",1,10,2023-09-26T14:42:54+00:00,2.322438955307,3,versionB_stim.csv,ReadVersion.csv,Read,Read2,FEATHER,HEAVY,Study2,M,13,40,Study,User,-,,Study/JOL,"Study Phase",1971,,,-1,-1,,,,1
10120923LH,blysflro0p,"Mediated JOLs",1,11,2023-09-26T14:42:55+00:00,1.0674300193787,3,versionB_stim.csv,ReadVersion.csv,Read,Read2,CHERRY,RED,Study2,F,25,17,Study,User,-,,Study/JOL,"Study Phase",958,,,-1,-1,,,,1
10120923LH,blysflro0p,"Mediated JOLs",1,12,2023-09-26T14:42:56+00:00,1.3771669864655,3,versionB_stim.csv,ReadVersion.csv,Read,Read2,ART,WOLF,Study2,U,38,39,Study,User,-,,Study/JOL,"Study Phase",1160,,,-1,-1,,,,1
10120923LH,blysflro0p,"Mediated JOLs",1,13,2023-09-26T14:42:58+00:00,1.150130033493,3,versionB_stim.csv,ReadVersion.csv,Read,Read2,CACTUS,PLANT,Study2,F,21,14,Study,User,-,,Study/JOL,"Study Phase",1011,,,-1,-1,,,,1
10120923LH,blysflro0p,"Mediated JOLs",1,14,2023-09-26T14:42:59+00:00,1.6709969043732,3,versionB_stim.csv,ReadVersion.csv,Read,Read2,CAVE,TRAP,Study2,M,15,13,Study,User,-,,Study/JOL,"Study Phase",1546,,,-1,-1,,,,1
10120923LH,blysflro0p,"Mediated JOLs",1,15,2023-09-26T14:43:01+00:00,1.537605047226,3,versionB_stim.csv,ReadVersion.csv,Read,Read2,STOP,SCHOOL,Study2,M,7,23,Study,User,-,,Study/JOL,"Study Phase",1418,,,-1,-1,,,,1
10120923LH,blysflro0p,"Mediated JOLs",1,16,2023-09-26T14:43:02+00:00,1.1010658740997,3,versionB_stim.csv,ReadVersion.csv,Read,Read2,DIETARY,SACK,Study2,U,42,28,Study,User,-,,Study/JOL,"Study Phase",962,,,-1,-1,,,,1
10120923LH,blysflro0p,"Mediated JOLs",1,17,2023-09-26T14:43:03+00:00,1.4278671741486,3,versionB_stim.csv,ReadVersion.csv,Read,Read2,MUSCLE,RAZOR,Study2,M,20,9,Study,User,-,,Study/JOL,"Study Phase",1169,,,-1,-1,,,,1
10120923LH,blysflro0p,"Mediated JOLs",1,18,2023-09-26T14:43:04+00:00,1.2217350006104,3,versionB_stim.csv,ReadVersion.csv,Read,Read2,CHISEL,HAMMER,Study2,F,23,19,Study,User,-,,Study/JOL,"Study Phase",886,,,-1,-1,,,,1
10120923LH,blysflro0p,"Mediated JOLs",1,19,2023-09-26T14:43:06+00:00,1.3240208625793,3,versionB_stim.csv,ReadVersion.csv,Read,Read2,SMELL,EYES,Study2,M,10,47,Study,User,-,,Study/JOL,"Study Phase",1126,,,-1,-1,,,,1
10120923LH,blysflro0p,"Mediated JOLs",1,20,2023-09-26T14:43:07+00:00,1.2041389942169,3,versionB_stim.csv,ReadVersion.csv,Read,Read2,KNOB,WINDOW,Study2,M,19,31,Study,User,-,,Study/JOL,"Study Phase",1071,,,-1,-1,,,,1
10120923LH,blysflro0p,"Mediated JOLs",1,21,2023-09-26T14:43:08+00:00,1.1391921043396,3,versionB_stim.csv,ReadVersion.csv,Read,Read2,LEAGUE,BASEBALL,Study2,F,29,37,Study,User,-,,Study/JOL,"Study Phase",935,,,-1,-1,,,,1
10120923LH,blysflro0p,"Mediated JOLs",1,22,2023-09-26T14:43:10+00:00,1.3844838142395,3,versionB_stim.csv,ReadVersion.csv,Read,Read2,HORNET,STING,Study2,F,30,41,Study,User,-,,Study/JOL,"Study Phase",987,,,-1,-1,,,,1
10120923LH,blysflro0p,"Mediated JOLs",1,23,2023-09-26T14:43:11+00:00,1.2040731906891,3,versionB_stim.csv,ReadVersion.csv,Read,Read2,BLAZE,FIRE,Study2,F,26,42,Study,User,-,,Study/JOL,"Study Phase",1088,,,-1,-1,,,,1
10120923LH,blysflro0p,"Mediated JOLs",1,24,2023-09-26T14:43:12+00:00,1.1888530254364,3,versionB_stim.csv,ReadVersion.csv,Read,Read2,DEATH,BUSINESS,Study2,U,44,25,Study,User,-,,Study/JOL,"Study Phase",1064,,,-1,-1,,,,1
10120923LH,blysflro0p,"Mediated JOLs",1,25,2023-09-26T14:43:13+00:00,1.2533218860626,3,versionB_stim.csv,ReadVersion.csv,Read,Read2,CHOP,CUT,Study2,F,22,49,Study,User,-,,Study/JOL,"Study Phase",950,,,-1,-1,,,,1
10120923LH,blysflro0p,"Mediated JOLs",1,26,2023-09-26T14:43:14+00:00,1.0715699195862,3,versionB_stim.csv,ReadVersion.csv,Read,Read2,SUGAR,RIDDLE,Study2,U,40,21,Study,User,-,,Study/JOL,"Study Phase",961,,,-1,-1,,,,1
10120923LH,blysflro0p,"Mediated JOLs",1,27,2023-09-26T14:43:15+00:00,1.1010301113129,3,versionB_stim.csv,ReadVersion.csv,Read,Read2,BRIDGE,WATER,Study2,F,35,35,Study,User,-,,Study/JOL,"Study Phase",950,,,-1,-1,,,,1
10120923LH,blysflro0p,"Mediated JOLs",1,28,2023-09-26T14:43:16+00:00,1.1394250392914,3,versionB_stim.csv,ReadVersion.csv,Read,Read2,MIRROR,CHILDREN,Study2,U,49,18,Study,User,-,,Study/JOL,"Study Phase",1025,,,-1,-1,,,,1
10120923LH,blysflro0p,"Mediated JOLs",1,29,2023-09-26T14:43:18+00:00,1.6487519741058,3,versionB_stim.csv,ReadVersion.csv,Read,Read2,HAPPY,CAR,Study2,U,37,43,Study,User,-,,Study/JOL,"Study Phase",1352,,,-1,-1,,,,1
10120923LH,blysflro0p,"Mediated JOLs",1,30,2023-09-26T14:43:19+00:00,1.3165259361267,3,versionB_stim.csv,ReadVersion.csv,Read,Read2,PUSH,CLUTTER,Study2,U,41,32,Study,User,-,,Study/JOL,"Study Phase",988,,,-1,-1,,,,1
10120923LH,blysflro0p,"Mediated JOLs",1,31,2023-09-26T14:43:21+00:00,1.2237439155579,3,versionB_stim.csv,ReadVersion.csv,Read,Read2,HERD,COW,Study2,F,33,29,Study,User,-,,Study/JOL,"Study Phase",1021,,,-1,-1,,,,1
10120923LH,blysflro0p,"Mediated JOLs",1,32,2023-09-26T14:43:22+00:00,0.96628308296204,3,versionB_stim.csv,ReadVersion.csv,Read,Read2,BASKET,OVEN,Study2,M,16,46,Study,User,-,,Study/JOL,"Study Phase",680,,,-1,-1,,,,1
10120923LH,blysflro0p,"Mediated JOLs",1,33,2023-09-26T14:43:22+00:00,0.69826793670654,3,versionB_stim.csv,ReadVersion.csv,Read,Read2,SNOW,SUMMER,Study2,M,6,48,Study,User,-,,Study/JOL,"Study Phase",574,,,-1,-1,,,,1
10120923LH,blysflro0p,"Mediated JOLs",1,34,2023-09-26T14:43:23+00:00,1.0375621318817,3,versionB_stim.csv,ReadVersion.csv,Read,Read2,SICK,HIDE,Study2,U,45,11,Study,User,-,,Study/JOL,"Study Phase",718,,,-1,-1,,,,1
10120923LH,blysflro0p,"Mediated JOLs",1,35,2023-09-26T14:43:24+00:00,0.86610698699951,3,versionB_stim.csv,ReadVersion.csv,Read,Read2,FEUD,FIGHT,Study2,F,31,30,Study,User,-,,Study/JOL,"Study Phase",496,,,-1,-1,,,,1
10120923LH,blysflro0p,"Mediated JOLs",1,36,2023-09-26T14:43:25+00:00,1.0374760627747,3,versionB_stim.csv,ReadVersion.csv,Read,Read2,BENCH,HORN,Study2,U,43,45,Study,User,-,,Study/JOL,"Study Phase",673,,,-1,-1,,,,1
10120923LH,blysflro0p,"Mediated JOLs",1,37,2023-09-26T14:43:26+00:00,1.0247960090637,3,versionB_stim.csv,ReadVersion.csv,Read,Read2,PEAK,VALLEY,Study2,M,18,27,Study,User,-,,Study/JOL,"Study Phase",908,,,-1,-1,,,,1
10120923LH,blysflro0p,"Mediated JOLs",1,38,2023-09-26T14:43:27+00:00,1.0335187911987,3,versionB_stim.csv,ReadVersion.csv,Read,Read2,KING,VASE,Study2,U,36,24,Study,User,-,,Study/JOL,"Study Phase",871,,,-1,-1,,,,1
10120923LH,blysflro0p,"Mediated JOLs",1,39,2023-09-26T14:43:28+00:00,1.0774631500244,3,versionB_stim.csv,ReadVersion.csv,Read,Read2,SEED,RAKE,Study2,M,14,50,Study,User,-,,Study/JOL,"Study Phase",850,,,-1,-1,,,,1
10120923LH,blysflro0p,"Mediated JOLs",1,40,2023-09-26T14:43:29+00:00,0.99185490608215,3,versionB_stim.csv,ReadVersion.csv,Read,Read2,CASH,LEG,Study2,U,50,38,Study,User,-,,Study/JOL,"Study Phase",731,,,-1,-1,,,,1
10120923LH,blysflro0p,"Mediated JOLs",1,41,2023-09-26T14:43:31+00:00,1.094966173172,3,versionB_stim.csv,ReadVersion.csv,Read,Read2,ISLAND,REALITY,Study2,M,9,34,Study,User,-,,Study/JOL,"Study Phase",640,,,-1,-1,,,,1
10120923LH,blysflro0p,"Mediated JOLs",1,42,2023-09-26T14:43:31+00:00,0.96819281578064,3,versionB_stim.csv,ReadVersion.csv,Read,Read2,LEASE,TOIL,Study2,U,46,8,Study,User,-,,Study/JOL,"Study Phase",814,,,-1,-1,,,,1
10120923LH,blysflro0p,"Mediated JOLs",1,43,2023-09-26T14:43:32+00:00,0.93307399749756,3,versionB_stim.csv,ReadVersion.csv,Read,Read2,THIGH,GRILL,Study2,M,17,36,Study,User,-,,Study/JOL,"Study Phase",798,,,-1,-1,,,,1
10120923LH,blysflro0p,"Mediated JOLs",1,44,2023-09-26T14:43:33+00:00,1.0486121177673,3,versionB_stim.csv,ReadVersion.csv,Read,Read2,COLLAR,PANTS,Study2,M,8,44,Study,User,-,,Study/JOL,"Study Phase",842,,,-1,-1,,,,1
10120923LH,blysflro0p,"Mediated JOLs",1,45,2023-09-26T14:43:34+00:00,0.88884687423706,3,versionB_stim.csv,ReadVersion.csv,Read,Read2,WASP,BUG,Study2,F,34,26,Study,User,-,,Study/JOL,"Study Phase",747,,,-1,-1,,,,1
10120923LH,blysflro0p,"Mediated JOLs",1,46,2023-09-26T14:43:35+00:00,1.0701949596405,3,versionB_stim.csv,ReadVersion.csv,Read,Read2,ARTERY,BRONZE,Study2,U,48,22,Study,User,-,,Study/JOL,"Study Phase",807,,,-1,-1,,,,1
10120923LH,blysflro0p,"Mediated JOLs",1,47,2023-09-26T14:43:37+00:00,1.0784361362457,3,versionB_stim.csv,ReadVersion.csv,Read,Read2,INCENSE,SMELL,Study2,F,28,10,Study,User,-,,Study/JOL,"Study Phase",796,,,-1,-1,,,,1
10120923LH,blysflro0p,"Mediated JOLs",1,48,2023-09-26T14:43:37+00:00,0.99619603157043,3,versionB_stim.csv,ReadVersion.csv,Read,Read2,STRONG,ACCIDENT,Study2,U,39,16,Study,User,-,,Study/JOL,"Study Phase",740,,,-1,-1,,,,1
10120923LH,blysflro0p,"Mediated JOLs",1,49,2023-09-26T14:43:38+00:00,0.9525420665741,3,versionB_stim.csv,ReadVersion.csv,Read,Read2,DOCUMENT,PAPER,Study2,F,27,51,Study,User,-,,Study/JOL,"Study Phase",734,,,-1,-1,,,,1
10120923LH,blysflro0p,"Mediated JOLs",1,50,2023-09-26T14:43:39+00:00,0.92686581611633,3,versionB_stim.csv,ReadVersion.csv,Read,Read2,ATTIRE,CLOTHES,Study2,F,24,20,Study,User,-,,Study/JOL,"Study Phase",785,,,-1,-1,,,,1
10120923LH,blysflro0p,"Mediated JOLs",1,51,2023-09-26T14:43:40+00:00,1.0486330986023,3,versionB_stim.csv,ReadVersion.csv,Read,Read2,CHILL,COLD,Study2,F,32,15,Study,User,-,,Study/JOL,"Study Phase",780,,,-1,-1,,,,1
10120923LH,blysflro0p,"Mediated JOLs",1,52,2023-09-26T14:43:41+00:00,1.0436809062958,3,versionB_stim.csv,ReadVersion.csv,Read,Read2,BOTH,OUNCE,Study2,U,47,7,Study,User,-,,Study/JOL,"Study Phase",792,,,-1,-1,,,,1
10120923LH,blysflro0p,"Mediated JOLs",1,53,2023-09-26T14:43:43+00:00,1.040776014328,3,versionB_stim.csv,ReadVersion.csv,Read,Read2,MOON,SPACE,BUFFER2,Buffer,109,110,Study,User,-,,Study/JOL,BUFFER2,720,,,-1,-1,,,,1
10120923LH,blysflro0p,"Mediated JOLs",1,54,2023-09-26T14:43:43+00:00,0.87640905380249,3,versionB_stim.csv,ReadVersion.csv,Read,Read2,SHRIMP,FISH,BUFFER4,Buffer,53,56,Study,User,-,,Study/JOL,BUFFER2,708,,,-1,-1,,,,1
10120923LH,blysflro0p,"Mediated JOLs",1,55,2023-09-26T14:43:44+00:00,0.71755290031433,3,versionB_stim.csv,ReadVersion.csv,Read,Read2,CAMP,ADVENTURE,BUFFER4,Buffer,55,54,Study,User,-,,Study/JOL,BUFFER2,450,,,-1,-1,,,,1
10120923LH,blysflro0p,"Mediated JOLs",1,56,2023-09-26T14:43:45+00:00,0.58298015594482,3,versionB_stim.csv,ReadVersion.csv,Read,Read2,THING,STUFF,BUFFER2,Buffer,110,108,Study,User,-,,Study/JOL,BUFFER2,411,,,-1,-1,,,,1
10120923LH,blysflro0p,"Mediated JOLs",1,57,2023-09-26T14:43:45+00:00,0.377760887146,3,versionB_stim.csv,ReadVersion.csv,Read,Read2,MALT,CHOCOLATE,BUFFER2,Buffer,108,109,Study,User,-,,Study/JOL,BUFFER2,218,,,-1,-1,,,,1
10120923LH,blysflro0p,"Mediated JOLs",1,58,2023-09-26T14:43:47+00:00,1.6537840366364,3,versionB_stim.csv,ReadVersion.csv,Read,Read2,,,,,,0,Instruct,User,-,"You have completed this section. Please press Enter.",Filler_Instruction,Instruct2,1511,,,-1,-1,,,,1
10120923LH,blysflro0p,"Mediated JOLs",1,59,2023-09-26T14:45:47+00:00,120.27793908119,3,versionB_stim.csv,ReadVersion.csv,Read,Read2,,,,,,0,FreeRecall,120,120,"Please list the 50 US states in alphabetical order. The task will automatically advance to the next screen after two minutes.",,Filler1,120000,"Alabama, Alaska, Arizona, Arkansas, California, Colorado, Coneticut, Deleware, Florida, Georgia, Hawaii, Idaho, Illinios, Indiana, Iowa, Kansas, Kentucky, Louisiana, Main, Maryland, Massachusettes, Michigan, Minisota, Mississippi, Misouri, Montana, Nebraska, Nevada, New Hampshire, New Jersey, New Mexica, North Colorado, North Dakota, Ohio, Oklahoma, Orgeon, Pensilvania, Rhode ID",0,4668,119749,0,0,,1
10120923LH,blysflro0p,"Mediated JOLs",1,60,2023-09-26T14:45:59+00:00,11.888949871063,3,versionB_stim.csv,ReadVersion.csv,Read,Read2,,,,,,0,Instruct,-,10,"You will now be presented with the first word from each of the previously studied item pairs. Please type the missing word. If you do not know the word, you may guess or press Enter to skip forward to the next pair.",,Instruct3,11548,,,-1,-1,,,,1
10120923LH,blysflro0p,"Mediated JOLs",1,61,2023-09-26T14:46:02+00:00,3.4927849769592,3,versionB_stim.csv,ReadVersion.csv,Read,Read2,PEAK,VALLEY,Study2,M,18,27,Test,User,-,,Recall,Recall1,3282,Mountian,14.285714285714,1666,2932,0,0,,1
10120923LH,blysflro0p,"Mediated JOLs",1,62,2023-09-26T14:46:05+00:00,2.5480711460114,3,versionB_stim.csv,ReadVersion.csv,Read,Read2,BRIDGE,WATER,Study2,F,35,35,Test,User,-,,Recall,Recall1,2236,Wood,22.222222222222,1655,2079,0,0,,1
10120923LH,blysflro0p,"Mediated JOLs",1,63,2023-09-26T14:46:08+00:00,3.3388569355011,3,versionB_stim.csv,ReadVersion.csv,Read,Read2,BENCH,HORN,Study2,U,43,45,Test,User,-,,Recall,Recall1,2828,Chair,44.444444444444,2141,2657,0,0,,1
10120923LH,blysflro0p,"Mediated JOLs",1,64,2023-09-26T14:46:11+00:00,2.906867980957,3,versionB_stim.csv,ReadVersion.csv,Read,Read2,KING,VASE,Study2,U,36,24,Test,User,-,,Recall,Recall1,2763,Crown,0,1171,2507,0,0,,1
10120923LH,blysflro0p,"Mediated JOLs",1,65,2023-09-26T14:46:13+00:00,1.8555181026459,3,versionB_stim.csv,ReadVersion.csv,Read,Read2,CHOP,CUT,Study2,F,22,49,Test,User,-,,Recall,Recall1,1562,Wood,0,994,1391,0,0,,1
10120923LH,blysflro0p,"Mediated JOLs",1,66,2023-09-26T14:46:16+00:00,3.3488068580627,3,versionB_stim.csv,ReadVersion.csv,Read,Read2,DIETARY,SACK,Study2,U,42,28,Test,User,-,,Recall,Recall1,3229,Sack,100,2406,2998,1,1,,1
10120923LH,blysflro0p,"Mediated JOLs",1,67,2023-09-26T14:46:18+00:00,2.068971157074,3,versionB_stim.csv,ReadVersion.csv,Read,Read2,LAWYER,NURSE,Study2,M,11,33,Test,User,-,,Recall,Recall1,1932,Nurse,100,1021,1620,1,1,,1
10120923LH,blysflro0p,"Mediated JOLs",1,68,2023-09-26T14:46:20+00:00,1.9167618751526,3,versionB_stim.csv,ReadVersion.csv,Read,Read2,PUSH,CLUTTER,Study2,U,41,32,Test,User,-,,Recall,Recall1,1786,Shove,16.666666666667,1014,1569,0,0,,1
10120923LH,blysflro0p,"Mediated JOLs",1,69,2023-09-26T14:46:23+00:00,3.0076620578766,3,versionB_stim.csv,ReadVersion.csv,Read,Read2,SUGAR,RIDDLE,Study2,U,40,21,Test,User,-,,Recall,Recall1,2851,Cookie,33.333333333333,1760,2702,0,0,,1
10120923LH,blysflro0p,"Mediated JOLs",1,70,2023-09-26T14:46:26+00:00,2.954274892807,3,versionB_stim.csv,ReadVersion.csv,Read,Read2,CAVE,TRAP,Study2,M,15,13,Test,User,-,,Recall,Recall1,2806,Rocks,22.222222222222,2110,2648,0,0,,1
10120923LH,blysflro0p,"Mediated JOLs",1,71,2023-09-26T14:46:31+00:00,4.6508941650391,3,versionB_stim.csv,ReadVersion.csv,Read,Read2,HERD,COW,Study2,F,33,29,Test,User,-,,Recall,Recall1,4440,Sheep,0,1004,4225,0,0,,1
10120923LH,blysflro0p,"Mediated JOLs",1,72,2023-09-26T14:46:33+00:00,1.9401388168335,3,versionB_stim.csv,ReadVersion.csv,Read,Read2,STOP,SCHOOL,Study2,M,7,23,Test,User,-,,Recall,Recall1,1788,Go,25,1357,1558,0,0,,1
10120923LH,blysflro0p,"Mediated JOLs",1,73,2023-09-26T14:46:35+00:00,1.9653160572052,3,versionB_stim.csv,ReadVersion.csv,Read,Read2,BASKET,OVEN,Study2,M,16,46,Test,User,-,,Recall,Recall1,1782,Case,25,1053,1633,0,0,,1
10120923LH,blysflro0p,"Mediated JOLs",1,74,2023-09-26T14:46:37+00:00,2.3256011009216,3,versionB_stim.csv,ReadVersion.csv,Read,Read2,SNOW,SUMMER,Study2,M,6,48,Test,User,-,,Recall,Recall1,2203,White,18.181818181818,1114,2061,0,0,,1
10120923LH,blysflro0p,"Mediated JOLs",1,75,2023-09-26T14:46:46+00:00,8.994668006897,3,versionB_stim.csv,ReadVersion.csv,Read,Read2,DEATH,BUSINESS,Study2,U,44,25,Test,User,-,,Recall,Recall1,8817,Life,33.333333333333,1595,2644,0,0,,1
10120923LH,blysflro0p,"Mediated JOLs",1,76,2023-09-26T14:46:49+00:00,2.4382948875427,3,versionB_stim.csv,ReadVersion.csv,Read,Read2,STRONG,ACCIDENT,Study2,U,39,16,Test,User,-,,Recall,Recall1,1905,Man,36.363636363636,1450,1699,0,0,,1
10120923LH,blysflro0p,"Mediated JOLs",1,77,2023-09-26T14:46:51+00:00,2.4401171207428,3,versionB_stim.csv,ReadVersion.csv,Read,Read2,ISLAND,REALITY,Study2,M,9,34,Test,User,-,,Recall,Recall1,2172,Sand,18.181818181818,1525,2000,0,0,,1
10120923LH,blysflro0p,"Mediated JOLs",1,78,2023-09-26T14:46:55+00:00,3.5480580329895,3,versionB_stim.csv,ReadVersion.csv,Read,Read2,INCENSE,SMELL,Study2,F,28,10,Test,User,-,,Recall,Recall1,3021,Smell,100,2000,2795,1,1,,1
10120923LH,blysflro0p,"Mediated JOLs",1,79,2023-09-26T14:46:57+00:00,2.1370298862457,3,versionB_stim.csv,ReadVersion.csv,Read,Read2,DOCUMENT,PAPER,Study2,F,27,51,Test,User,-,,Recall,Recall1,1874,Paper,100,1177,1759,1,1,,1
10120923LH,blysflro0p,"Mediated JOLs",1,80,2023-09-26T14:46:59+00:00,1.8429489135742,3,versionB_stim.csv,ReadVersion.csv,Read,Read2,WASP,BUG,Study2,F,34,26,Test,User,-,,Recall,Recall1,1585,Bee,33.333333333333,1073,1441,0,0,,1
10120923LH,blysflro0p,"Mediated JOLs",1,81,2023-09-26T14:47:01+00:00,2.2000160217285,3,versionB_stim.csv,ReadVersion.csv,Read,Read2,ATTIRE,CLOTHES,Study2,F,24,20,Test,User,-,,Recall,Recall1,2036,Dress,33.333333333333,1084,1888,0,0,,1
10120923LH,blysflro0p,"Mediated JOLs",1,82,2023-09-26T14:47:03+00:00,2.2365660667419,3,versionB_stim.csv,ReadVersion.csv,Read,Read2,FEATHER,HEAVY,Study2,M,13,40,Test,User,-,,Recall,Recall1,2054,Light,20,1107,1856,0,0,,1
10120923LH,blysflro0p,"Mediated JOLs",1,83,2023-09-26T14:47:06+00:00,2.8876709938049,3,versionB_stim.csv,ReadVersion.csv,Read,Read2,MIRROR,CHILDREN,Study2,U,49,18,Test,User,-,,Recall,Recall1,2553,Snow,16.666666666667,1953,2312,0,0,,1
10120923LH,blysflro0p,"Mediated JOLs",1,84,2023-09-26T14:47:07+00:00,1.5548739433289,3,versionB_stim.csv,ReadVersion.csv,Read,Read2,HAPPY,CAR,Study2,U,37,43,Test,User,-,,Recall,Recall1,1416,Sad,33.333333333333,912,1246,0,0,,1
10120923LH,blysflro0p,"Mediated JOLs",1,85,2023-09-26T14:47:10+00:00,2.8660161495209,3,versionB_stim.csv,ReadVersion.csv,Read,Read2,FEUD,FIGHT,Study2,F,31,30,Test,User,-,,Recall,Recall1,2717,Frack,20,1723,2513,0,0,,1
10120923LH,blysflro0p,"Mediated JOLs",1,86,2023-09-26T14:47:15+00:00,5.0583100318909,3,versionB_stim.csv,ReadVersion.csv,Read,Read2,DRINK,SOAP,Study2,M,12,12,Test,User,-,,Recall,Recall1,4837,Bubble,0,2550,4728,0,0,,1
10120923LH,blysflro0p,"Mediated JOLs",1,87,2023-09-26T14:47:17+00:00,2.0540127754211,3,versionB_stim.csv,ReadVersion.csv,Read,Read2,CASH,LEG,Study2,U,50,38,Test,User,-,,Recall,Recall1,1849,Money,25,891,1568,0,0,,1
10120923LH,blysflro0p,"Mediated JOLs",1,88,2023-09-26T14:47:20+00:00,2.403153181076,3,versionB_stim.csv,ReadVersion.csv,Read,Read2,CHERRY,RED,Study2,F,25,17,Test,User,-,,Recall,Recall1,2249,Soda,28.571428571429,1713,2117,0,0,,1
10120923LH,blysflro0p,"Mediated JOLs",1,89,2023-09-26T14:47:23+00:00,3.5357599258423,3,versionB_stim.csv,ReadVersion.csv,Read,Read2,CACTUS,PLANT,Study2,F,21,14,Test,User,-,,Recall,Recall1,3330,Plant,100,1338,3200,1,1,,1
10120923LH,blysflro0p,"Mediated JOLs",1,90,2023-09-26T14:47:26+00:00,2.5605289936066,3,versionB_stim.csv,ReadVersion.csv,Read,Read2,HORNET,STING,Study2,F,30,41,Test,User,-,,Recall,Recall1,2130,Nest,44.444444444444,1409,1980,0,0,,1
10120923LH,blysflro0p,"Mediated JOLs",1,91,2023-09-26T14:47:29+00:00,2.5748400688171,3,versionB_stim.csv,ReadVersion.csv,Read,Read2,LEASE,TOIL,Study2,U,46,8,Test,User,-,,Recall,Recall1,2250,Fease,0,1163,2110,0,0,,1
10120923LH,blysflro0p,"Mediated JOLs",1,92,2023-09-26T14:47:31+00:00,2.6550149917603,3,versionB_stim.csv,ReadVersion.csv,Read,Read2,CHISEL,HAMMER,Study2,F,23,19,Test,User,-,,Recall,Recall1,2502,Hammer,100,1829,2382,1,1,,1
10120923LH,blysflro0p,"Mediated JOLs",1,93,2023-09-26T14:47:35+00:00,3.4436919689178,3,versionB_stim.csv,ReadVersion.csv,Read,Read2,LEAGUE,BASEBALL,Study2,F,29,37,Test,User,-,,Recall,Recall1,3133,Baseball,100,1108,2960,1,1,,1
10120923LH,blysflro0p,"Mediated JOLs",1,94,2023-09-26T14:47:36+00:00,1.7506310939789,3,versionB_stim.csv,ReadVersion.csv,Read,Read2,KNOB,WINDOW,Study2,M,19,31,Test,User,-,,Recall,Recall1,1583,Door,40,994,1400,0,0,,1
10120923LH,blysflro0p,"Mediated JOLs",1,95,2023-09-26T14:47:39+00:00,2.1243708133698,3,versionB_stim.csv,ReadVersion.csv,Read,Read2,ART,WOLF,Study2,U,38,39,Test,User,-,,Recall,Recall1,1994,Wolf,100,934,1751,1,1,,1
10120923LH,blysflro0p,"Mediated JOLs",1,96,2023-09-26T14:47:41+00:00,2.8172011375427,3,versionB_stim.csv,ReadVersion.csv,Read,Read2,SEED,RAKE,Study2,M,14,50,Test,User,-,,Recall,Recall1,2688,tree,50,1995,2493,0,0,,1
10120923LH,blysflro0p,"Mediated JOLs",1,97,2023-09-26T14:47:43+00:00,2.0126359462738,3,versionB_stim.csv,ReadVersion.csv,Read,Read2,BLAZE,FIRE,Study2,F,26,42,Test,User,-,,Recall,Recall1,1667,FIre,100,1182,1517,1,1,,1
10120923LH,blysflro0p,"Mediated JOLs",1,98,2023-09-26T14:47:46+00:00,2.6134729385376,3,versionB_stim.csv,ReadVersion.csv,Read,Read2,ARTERY,BRONZE,Study2,U,48,22,Test,User,-,,Recall,Recall1,2486,Wolf,20,1802,2323,0,0,,1
10120923LH,blysflro0p,"Mediated JOLs",1,99,2023-09-26T14:47:48+00:00,1.9466710090637,3,versionB_stim.csv,ReadVersion.csv,Read,Read2,COLLAR,PANTS,Study2,M,8,44,Test,User,-,,Recall,Recall1,1811,Bone,22.222222222222,1163,1641,0,0,,1
10120923LH,blysflro0p,"Mediated JOLs",1,100,2023-09-26T14:47:50+00:00,2.2685761451721,3,versionB_stim.csv,ReadVersion.csv,Read,Read2,BOTH,OUNCE,Study2,U,47,7,Test,User,-,,Recall,Recall1,2152,two,25,1660,1893,0,0,,1
10120923LH,blysflro0p,"Mediated JOLs",1,101,2023-09-26T14:47:52+00:00,1.8948137760162,3,versionB_stim.csv,ReadVersion.csv,Read,Read2,THIGH,GRILL,Study2,M,17,36,Test,User,-,,Recall,Recall1,1748,leg,25,991,1496,0,0,,1
10120923LH,blysflro0p,"Mediated JOLs",1,102,2023-09-26T14:47:54+00:00,2.2302792072296,3,versionB_stim.csv,ReadVersion.csv,Read,Read2,MUSCLE,RAZOR,Study2,M,20,9,Test,User,-,,Recall,Recall1,2101,arm,50,1514,1842,0,0,,1
10120923LH,blysflro0p,"Mediated JOLs",1,103,2023-09-26T14:47:56+00:00,1.7231488227844,3,versionB_stim.csv,ReadVersion.csv,Read,Read2,SMELL,EYES,Study2,M,10,47,Test,User,-,,Recall,Recall1,1597,eyes,100,784,1454,1,1,,1
10120923LH,blysflro0p,"Mediated JOLs",1,104,2023-09-26T14:47:59+00:00,2.7401731014252,3,versionB_stim.csv,ReadVersion.csv,Read,Read2,SICK,HIDE,Study2,U,45,11,Test,User,-,,Recall,Recall1,2375,person,20,1481,2178,0,0,,1
10120923LH,blysflro0p,"Mediated JOLs",1,105,2023-09-26T14:48:01+00:00,2.4453990459442,3,versionB_stim.csv,ReadVersion.csv,Read,Read2,CHILL,COLD,Study2,F,32,15,Test,User,-,,Recall,Recall1,2322,fire,0,1794,2177,0,0,,1
10120923LH,blysflro0p,"Mediated JOLs",1,106,2023-09-26T14:48:14+00:00,12.317998886108,3,versionB_stim.csv,ReadVersion.csv,Read,Read2,,,,,,0,Instruct,-,10,"You will now be presented with a new set of word pairs. Please study each pair. Remember that your memory will be tested! When finished, press Enter to move to the next pair.",Initial_Instruct,Instruct4,12164,,,-1,-1,,,,1
10120923LH,blysflro0p,"Mediated JOLs",1,107,2023-09-26T14:48:14+00:00,0.81603002548218,3,versionB_stim.csv,ReadVersion.csv,Read,Read2,,,,,,0,Instruct,User,-,"Press Enter when you are readty to begin",,Instruct11,687,,,-1,-1,,,,1
10120923LH,blysflro0p,"Mediated JOLs",1,108,2023-09-26T14:48:16+00:00,1.6274309158325,3,versionB_stim.csv,ReadVersion.csv,Read,Read2,ICE,FROZEN,BUFFER4,Buffer,54,53,Study,User,-,,Study/JOL,BUFFER2,1369,,,-1,-1,,,,1
10120923LH,blysflro0p,"Mediated JOLs",1,109,2023-09-26T14:48:17+00:00,1.2782740592957,3,versionB_stim.csv,ReadVersion.csv,Read,Read2,SPACE,JAM,BUFFER1,Buffer,60,61,Study,User,-,,Study/JOL,BUFFER2,910,,,-1,-1,,,,1
10120923LH,blysflro0p,"Mediated JOLs",1,110,2023-09-26T14:48:18+00:00,0.78910207748413,3,versionB_stim.csv,ReadVersion.csv,Read,Read2,NOODLE,STRING,BUFFER4,Buffer,52,52,Study,User,-,,Study/JOL,BUFFER2,647,,,-1,-1,,,,1
10120923LH,blysflro0p,"Mediated JOLs",1,111,2023-09-26T14:48:19+00:00,0.89877390861511,3,versionB_stim.csv,ReadVersion.csv,Read,Read2,PEANUT,BUTTER,BUFFER1,Buffer,58,60,Study,User,-,,Study/JOL,BUFFER2,576,,,-1,-1,,,,1
10120923LH,blysflro0p,"Mediated JOLs",1,112,2023-09-26T14:48:20+00:00,0.5758581161499,3,versionB_stim.csv,ReadVersion.csv,Read,Read2,SCARE,FRIGHT,BUFFER1,Buffer,59,57,Study,User,-,,Study/JOL,BUFFER2,373,,,-1,-1,,,,1
10120923LH,blysflro0p,"Mediated JOLs",1,113,2023-09-26T14:48:20+00:00,0.48120188713074,3,versionB_stim.csv,ReadVersion.csv,Read,Read2,BOX,BEACH,Study1,M,62,91,Study,User,-,,Study/JOL,"Study Phase2",322,,,-1,-1,,,,1
10120923LH,blysflro0p,"Mediated JOLs",1,114,2023-09-26T14:48:20+00:00,0.39102816581726,3,versionB_stim.csv,ReadVersion.csv,Read,Read2,AFFECTION,LOVE,Study1,F,86,70,Study,User,-,,Study/JOL,"Study Phase2",151,,,-1,-1,,,,1
10120923LH,blysflro0p,"Mediated JOLs",1,115,2023-09-26T14:48:21+00:00,0.46223783493042,3,versionB_stim.csv,ReadVersion.csv,Read,Read2,ORCHID,FLOWER,Study1,F,89,81,Study,User,-,,Study/JOL,"Study Phase2",326,,,-1,-1,,,,1
10120923LH,blysflro0p,"Mediated JOLs",1,116,2023-09-26T14:48:21+00:00,0.60149598121643,3,versionB_stim.csv,ReadVersion.csv,Read,Read2,CREDIT,CARD,Study1,F,88,101,Study,User,-,,Study/JOL,"Study Phase2",262,,,-1,-1,,,,1
10120923LH,blysflro0p,"Mediated JOLs",1,117,2023-09-26T14:48:22+00:00,0.45728302001953,3,versionB_stim.csv,ReadVersion.csv,Read,Read2,GIVE,STEAK,Study1,U,93,89,Study,User,-,,Study/JOL,"Study Phase2",321,,,-1,-1,,,,1
10120923LH,blysflro0p,"Mediated JOLs",1,118,2023-09-26T14:48:22+00:00,0.58605098724365,3,versionB_stim.csv,ReadVersion.csv,Read,Read2,CAKE,HAND,Study1,U,104,100,Study,User,-,,Study/JOL,"Study Phase2",313,,,-1,-1,,,,1
10120923LH,blysflro0p,"Mediated JOLs",1,119,2023-09-26T14:48:23+00:00,0.52420902252197,3,versionB_stim.csv,ReadVersion.csv,Read,Read2,WAGE,MONEY,Study1,F,77,90,Study,User,-,,Study/JOL,"Study Phase2",347,,,-1,-1,,,,1
10120923LH,blysflro0p,"Mediated JOLs",1,120,2023-09-26T14:48:24+00:00,0.51923608779907,3,versionB_stim.csv,ReadVersion.csv,Read,Read2,FUZZY,BANG,Study1,U,105,93,Study,User,-,,Study/JOL,"Study Phase2",290,,,-1,-1,,,,1
10120923LH,blysflro0p,"Mediated JOLs",1,121,2023-09-26T14:48:24+00:00,0.38749098777771,3,versionB_stim.csv,ReadVersion.csv,Read,Read2,BOTTLE,CRY,Study1,M,71,68,Study,User,-,,Study/JOL,"Study Phase2",206,,,-1,-1,,,,1
10120923LH,blysflro0p,"Mediated JOLs",1,122,2023-09-26T14:48:24+00:00,0.37399888038635,3,versionB_stim.csv,ReadVersion.csv,Read,Read2,SILK,ROUGH,Study1,M,65,65,Study,User,-,,Study/JOL,"Study Phase2",249,,,-1,-1,,,,1
10120923LH,blysflro0p,"Mediated JOLs",1,123,2023-09-26T14:48:25+00:00,0.4249701499939,3,versionB_stim.csv,ReadVersion.csv,Read,Read2,LISTEN,FICTION,Study1,U,99,92,Study,User,-,,Study/JOL,"Study Phase2",283,,,-1,-1,,,,1
10120923LH,blysflro0p,"Mediated JOLs",1,124,2023-09-26T14:48:25+00:00,0.59908986091614,3,versionB_stim.csv,ReadVersion.csv,Read,Read2,COTTON,HARD,Study1,M,75,86,Study,User,-,,Study/JOL,"Study Phase2",297,,,-1,-1,,,,1
10120923LH,blysflro0p,"Mediated JOLs",1,125,2023-09-26T14:48:26+00:00,0.39354109764099,3,versionB_stim.csv,ReadVersion.csv,Read,Read2,NAP,SLEEP,Study1,F,84,95,Study,User,-,,Study/JOL,"Study Phase2",233,,,-1,-1,,,,1
10120923LH,blysflro0p,"Mediated JOLs",1,126,2023-09-26T14:48:26+00:00,0.3985710144043,3,versionB_stim.csv,ReadVersion.csv,Read,Read2,SIGN,TICK,Study1,U,102,62,Study,User,-,,Study/JOL,"Study Phase2",272,,,-1,-1,,,,1
10120923LH,blysflro0p,"Mediated JOLs",1,127,2023-09-26T14:48:27+00:00,0.41634106636047,3,versionB_stim.csv,ReadVersion.csv,Read,Read2,SHELL,SHAKE,Study1,U,98,97,Study,User,-,,Study/JOL,"Study Phase2",275,,,-1,-1,,,,1
10120923LH,blysflro0p,"Mediated JOLs",1,128,2023-09-26T14:48:27+00:00,0.37974786758423,3,versionB_stim.csv,ReadVersion.csv,Read,Read2,SYRUP,TREE,Study1,M,66,74,Study,User,-,,Study/JOL,"Study Phase2",130,,,-1,-1,,,,1
10120923LH,blysflro0p,"Mediated JOLs",1,129,2023-09-26T14:48:27+00:00,0.41313099861145,3,versionB_stim.csv,ReadVersion.csv,Read,Read2,PIE,BIRTHDAY,Study1,M,64,85,Study,User,-,,Study/JOL,"Study Phase2",205,,,-1,-1,,,,1
10120923LH,blysflro0p,"Mediated JOLs",1,130,2023-09-26T14:48:28+00:00,0.44749808311462,3,versionB_stim.csv,ReadVersion.csv,Read,Read2,FINGER,WEDDING,Study1,M,72,88,Study,User,-,,Study/JOL,"Study Phase2",301,,,-1,-1,,,,1
10120923LH,blysflro0p,"Mediated JOLs",1,131,2023-09-26T14:48:28+00:00,0.34853601455688,3,versionB_stim.csv,ReadVersion.csv,Read,Read2,CARPET,CEILING,Study1,M,70,69,Study,User,-,,Study/JOL,"Study Phase2",202,,,-1,-1,,,,1
10120923LH,blysflro0p,"Mediated JOLs",1,132,2023-09-26T14:48:29+00:00,0.39434885978699,3,versionB_stim.csv,ReadVersion.csv,Read,Read2,MULE,DONKEY,Study1,F,85,63,Study,User,-,,Study/JOL,"Study Phase2",279,,,-1,-1,,,,1
10120923LH,blysflro0p,"Mediated JOLs",1,133,2023-09-26T14:48:29+00:00,0.39196610450745,3,versionB_stim.csv,ReadVersion.csv,Read,Read2,WORD,SENTENCE,Study1,F,82,99,Study,User,-,,Study/JOL,"Study Phase2",241,,,-1,-1,,,,1
10120923LH,blysflro0p,"Mediated JOLs",1,134,2023-09-26T14:48:29+00:00,0.41373491287231,3,versionB_stim.csv,ReadVersion.csv,Read,Read2,SCALP,HEAD,Study1,F,78,72,Study,User,-,,Study/JOL,"Study Phase2",262,,,-1,-1,,,,1
10120923LH,blysflro0p,"Mediated JOLs",1,135,2023-09-26T14:48:30+00:00,0.50555396080017,3,versionB_stim.csv,ReadVersion.csv,Read,Read2,VEHICLE,CHARM,Study1,U,95,96,Study,User,-,,Study/JOL,"Study Phase2",236,,,-1,-1,,,,1
10120923LH,blysflro0p,"Mediated JOLs",1,136,2023-09-26T14:48:30+00:00,0.25833511352539,3,versionB_stim.csv,ReadVersion.csv,Read,Read2,MULE,DONKEY,Study1,F,79,105,Study,User,-,,Study/JOL,"Study Phase2",116,,,-1,-1,,,,1
10120923LH,blysflro0p,"Mediated JOLs",1,137,2023-09-26T14:48:30+00:00,0.37925410270691,3,versionB_stim.csv,ReadVersion.csv,Read,Read2,BOUNCE,BAT,Study1,M,67,104,Study,User,-,,Study/JOL,"Study Phase2",168,,,-1,-1,,,,1
10120923LH,blysflro0p,"Mediated JOLs",1,138,2023-09-26T14:48:31+00:00,0.4065887928009,3,versionB_stim.csv,ReadVersion.csv,Read,Read2,MIRROR,MAROON,Study1,U,91,78,Study,User,-,,Study/JOL,"Study Phase2",272,,,-1,-1,,,,1
10120923LH,blysflro0p,"Mediated JOLs",1,139,2023-09-26T14:48:31+00:00,0.4205801486969,3,versionB_stim.csv,ReadVersion.csv,Read,Read2,DANCE,CIRCLE,Study1,M,68,98,Study,User,-,,Study/JOL,"Study Phase2",292,,,-1,-1,,,,1
10120923LH,blysflro0p,"Mediated JOLs",1,140,2023-09-26T14:48:32+00:00,0.39206695556641,3,versionB_stim.csv,ReadVersion.csv,Read,Read2,STRETCH,CLOTH,Study1,U,92,71,Study,User,-,,Study/JOL,"Study Phase2",269,,,-1,-1,,,,1
10120923LH,blysflro0p,"Mediated JOLs",1,141,2023-09-26T14:48:32+00:00,0.39625597000122,3,versionB_stim.csv,ReadVersion.csv,Read,Read2,TEMPERATURE,MORNING,Study1,U,103,83,Study,User,-,,Study/JOL,"Study Phase2",99,,,-1,-1,,,,1
10120923LH,blysflro0p,"Mediated JOLs",1,142,2023-09-26T14:48:32+00:00,0.41266894340515,3,versionB_stim.csv,ReadVersion.csv,Read,Read2,MEAT,KEYS,Study1,U,96,79,Study,User,-,,Study/JOL,"Study Phase2",281,,,-1,-1,,,,1
10120923LH,blysflro0p,"Mediated JOLs",1,143,2023-09-26T14:48:33+00:00,0.48150610923767,3,versionB_stim.csv,ReadVersion.csv,Read,Read2,ROOT,PLANT,Study1,F,80,94,Study,User,-,,Study/JOL,"Study Phase2",304,,,-1,-1,,,,1
10120923LH,blysflro0p,"Mediated JOLs",1,144,2023-09-26T14:48:33+00:00,0.3871898651123,3,versionB_stim.csv,ReadVersion.csv,Read,Read2,HAIR,TOOTH,Study1,M,74,67,Study,User,-,,Study/JOL,"Study Phase2",260,,,-1,-1,,,,1
10120923LH,blysflro0p,"Mediated JOLs",1,145,2023-09-26T14:48:34+00:00,0.39862203598022,3,versionB_stim.csv,ReadVersion.csv,Read,Read2,CRACKLE,ELECTION,Study1,U,94,64,Study,User,-,,Study/JOL,"Study Phase2",275,,,-1,-1,,,,1
10120923LH,blysflro0p,"Mediated JOLs",1,146,2023-09-26T14:48:34+00:00,0.36489009857178,3,versionB_stim.csv,ReadVersion.csv,Read,Read2,SOON,BELT,Study1,U,101,103,Study,User,-,,Study/JOL,"Study Phase2",222,,,-1,-1,,,,1
10120923LH,blysflro0p,"Mediated JOLs",1,147,2023-09-26T14:48:35+00:00,0.39220404624939,3,versionB_stim.csv,ReadVersion.csv,Read,Read2,DARK,DAY,Study1,M,73,76,Study,User,-,,Study/JOL,"Study Phase2",278,,,-1,-1,,,,1
10120923LH,blysflro0p,"Mediated JOLs",1,148,2023-09-26T14:48:35+00:00,0.54556798934937,3,versionB_stim.csv,ReadVersion.csv,Read,Read2,LITTER,TRASH,Study1,F,76,106,Study,User,-,,Study/JOL,"Study Phase2",300,,,-1,-1,,,,1
10120923LH,blysflro0p,"Mediated JOLs",1,149,2023-09-26T14:48:35+00:00,0.27957391738892,3,versionB_stim.csv,ReadVersion.csv,Read,Read2,SWAN,BIRD,Study1,F,81,75,Study,User,-,,Study/JOL,"Study Phase2",160,,,-1,-1,,,,1
10120923LH,blysflro0p,"Mediated JOLs",1,150,2023-09-26T14:48:36+00:00,0.39500999450684,3,versionB_stim.csv,ReadVersion.csv,Read,Read2,STRIPES,LION,Study1,M,61,87,Study,User,-,,Study/JOL,"Study Phase2",189,,,-1,-1,,,,1
10120923LH,blysflro0p,"Mediated JOLs",1,151,2023-09-26T14:48:36+00:00,0.42134404182434,3,versionB_stim.csv,ReadVersion.csv,Read,Read2,MAZE,PHONE,Study1,U,97,84,Study,User,-,,Study/JOL,"Study Phase2",255,,,-1,-1,,,,1
10120923LH,blysflro0p,"Mediated JOLs",1,152,2023-09-26T14:48:37+00:00,0.37192392349243,3,versionB_stim.csv,ReadVersion.csv,Read,Read2,QUIET,WAR,Study1,M,63,66,Study,User,-,,Study/JOL,"Study Phase2",251,,,-1,-1,,,,1
10120923LH,blysflro0p,"Mediated JOLs",1,153,2023-09-26T14:48:37+00:00,0.44515609741211,3,versionB_stim.csv,ReadVersion.csv,Read,Read2,SIP,DRINK,Study1,F,87,102,Study,User,-,,Study/JOL,"Study Phase2",273,,,-1,-1,,,,1
10120923LH,blysflro0p,"Mediated JOLs",1,154,2023-09-26T14:48:37+00:00,0.42082500457764,3,versionB_stim.csv,ReadVersion.csv,Read,Read2,WHEEL,HORSE,Study1,M,69,82,Study,User,-,,Study/JOL,"Study Phase2",147,,,-1,-1,,,,1
10120923LH,blysflro0p,"Mediated JOLs",1,155,2023-09-26T14:48:38+00:00,0.42328190803528,3,versionB_stim.csv,ReadVersion.csv,Read,Read2,TUNA,FISH,Study1,F,90,77,Study,User,-,,Study/JOL,"Study Phase2",187,,,-1,-1,,,,1
10120923LH,blysflro0p,"Mediated JOLs",1,156,2023-09-26T14:48:38+00:00,0.38942313194275,3,versionB_stim.csv,ReadVersion.csv,Read,Read2,KEYS,ROD,Study1,U,100,73,Study,User,-,,Study/JOL,"Study Phase2",220,,,-1,-1,,,,1
10120923LH,blysflro0p,"Mediated JOLs",1,157,2023-09-26T14:48:39+00:00,0.39536786079407,3,versionB_stim.csv,ReadVersion.csv,Read,Read2,HYGIENE,CLEAN,Study1,F,83,80,Study,User,-,,Study/JOL,"Study Phase2",242,,,-1,-1,,,,1
10120923LH,blysflro0p,"Mediated JOLs",1,158,2023-09-26T14:48:39+00:00,0.3791720867157,3,versionB_stim.csv,ReadVersion.csv,Read,Read2,PITCHER,CATCHER,BUFFER1,Buffer,57,58,Study,User,-,,Study/JOL,BUFFER2,253,,,-1,-1,,,,1
10120923LH,blysflro0p,"Mediated JOLs",1,159,2023-09-26T14:48:39+00:00,0.39216995239258,3,versionB_stim.csv,ReadVersion.csv,Read,Read2,SHERRIF,POLICE,BUFFER2,Buffer,107,111,Study,User,-,,Study/JOL,BUFFER2,256,,,-1,-1,,,,1
10120923LH,blysflro0p,"Mediated JOLs",1,160,2023-09-26T14:48:40+00:00,0.40288996696472,3,versionB_stim.csv,ReadVersion.csv,Read,Read2,GEESE,GOOSE,BUFFER2,Buffer,106,107,Study,User,-,,Study/JOL,BUFFER2,289,,,-1,-1,,,,1
10120923LH,blysflro0p,"Mediated JOLs",1,161,2023-09-26T14:48:40+00:00,0.5267550945282,3,versionB_stim.csv,ReadVersion.csv,Read,Read2,CARROT,POTATO,BUFFER4,Buffer,51,55,Study,User,-,,Study/JOL,BUFFER2,281,,,-1,-1,,,,1
10120923LH,blysflro0p,"Mediated JOLs",1,162,2023-09-26T14:48:41+00:00,0.29533696174622,3,versionB_stim.csv,ReadVersion.csv,Read,Read2,TREES,GREEN,BUFFER1,Buffer,56,59,Study,User,-,,Study/JOL,BUFFER2,169,,,-1,-1,,,,1
10120923LH,blysflro0p,"Mediated JOLs",1,163,2023-09-26T14:48:42+00:00,1.416543006897,3,versionB_stim.csv,ReadVersion.csv,Read,Read2,,,,,,0,Instruct,User,-,"You have completed this section. Please press Enter.",Filler_Instruction,Instruct2,1238,,,-1,-1,,,,1
10120923LH,blysflro0p,"Mediated JOLs",1,164,2023-09-26T14:50:42+00:00,120.26788306236,3,versionB_stim.csv,ReadVersion.csv,Read,Read2,,,,,,0,FreeRecall,120,120,"Please list the 50 US states in alphabetical order. The task will automatically advance to the next screen after two minutes.",,Filler1,120002,"Alabama, Alaska, Arizona, Arkansas, California, Colorado, Conneticut, Deleware, Florida, Georgia, Hawaii, Idaho, Illimois, Indiana, Iowa, Kansas, Kentucky, Lousiaina, Maine, Marylandm Massachusetes Michigan MInisota Mississippi Misouri MOntana NEbraska NEvade NEw HAmpsire NEw Jersey New Mexico New York North Carolina NOrth Dakota Ohio Oklahoma Orgeon Pensilvania Rhode ISland SOuth Carolina Souther Dakota Tennesee Texas Utah Vermont Vigrinia Wsington West Virginia ",0,1933,119976,0,0,,1
10120923LH,blysflro0p,"Mediated JOLs",1,165,2023-09-26T14:51:03+00:00,20.313598871231,3,versionB_stim.csv,ReadVersion.csv,Read,Read2,,,,,,0,Instruct,-,10,"You will now be presented with the first word from each of the previously studied item pairs. Please type the missing word. If you do not know the word, you may guess or press Enter to skip forward to the next pair.",,Instruct3,20078,,,-1,-1,,,,1
10120923LH,blysflro0p,"Mediated JOLs",1,166,2023-09-26T14:51:06+00:00,2.9867219924927,3,versionB_stim.csv,ReadVersion.csv,Read,Read2,MAZE,PHONE,Study1,U,97,84,Test,User,-,,Recall,Recall2,2844,Runner,36.363636363636,1974,2610,0,0,,1
10120923LH,blysflro0p,"Mediated JOLs",1,167,2023-09-26T14:51:08+00:00,2.5679371356964,3,versionB_stim.csv,ReadVersion.csv,Read,Read2,CRACKLE,ELECTION,Study1,U,94,64,Test,User,-,,Recall,Recall2,2252,Pop,18.181818181818,1674,1969,0,0,,1
10120923LH,blysflro0p,"Mediated JOLs",1,168,2023-09-26T14:51:10+00:00,1.9153819084167,3,versionB_stim.csv,ReadVersion.csv,Read,Read2,SHELL,SHAKE,Study1,U,98,97,Test,User,-,,Recall,Recall2,1789,Sea,50,1324,1650,0,0,,1
10120923LH,blysflro0p,"Mediated JOLs",1,169,2023-09-26T14:51:13+00:00,2.9365520477295,3,versionB_stim.csv,ReadVersion.csv,Read,Read2,MULE,DONKEY,Study1,F,79,105,Test,User,-,,Recall,Recall2,2659,Horse,36.363636363636,1668,2381,0,0,,1
10120923LH,blysflro0p,"Mediated JOLs",1,170,2023-09-26T14:51:15+00:00,1.6969308853149,3,versionB_stim.csv,ReadVersion.csv,Read,Read2,VEHICLE,CHARM,Study1,U,95,96,Test,User,-,,Recall,Recall2,1552,Car,75,1013,1439,0,1,,1
10120923LH,blysflro0p,"Mediated JOLs",1,171,2023-09-26T14:51:17+00:00,1.8520569801331,3,versionB_stim.csv,ReadVersion.csv,Read,Read2,AFFECTION,LOVE,Study1,F,86,70,Test,User,-,,Recall,Recall2,1631,Love,100,1054,1471,1,1,,1
10120923LH,blysflro0p,"Mediated JOLs",1,172,2023-09-26T14:51:19+00:00,2.556184053421,3,versionB_stim.csv,ReadVersion.csv,Read,Read2,HYGIENE,CLEAN,Study1,F,83,80,Test,User,-,,Recall,Recall2,2446,Teeth,20,1630,2233,0,0,,1
10120923LH,blysflro0p,"Mediated JOLs",1,173,2023-09-26T14:51:22+00:00,3.090029001236,3,versionB_stim.csv,ReadVersion.csv,Read,Read2,QUIET,WAR,Study1,M,63,66,Test,User,-,,Recall,Recall2,2953,Wisper,44.444444444444,2032,2794,0,0,,1
10120923LH,blysflro0p,"Mediated JOLs",1,174,2023-09-26T14:51:26+00:00,3.782163143158,3,versionB_stim.csv,ReadVersion.csv,Read,Read2,FINGER,WEDDING,Study1,M,72,88,Test,User,-,,Recall,Recall2,3459,Bone,18.181818181818,1830,3278,0,0,,1
10120923LH,blysflro0p,"Mediated JOLs",1,175,2023-09-26T14:51:28+00:00,1.7347259521484,3,versionB_stim.csv,ReadVersion.csv,Read,Read2,CREDIT,CARD,Study1,F,88,101,Test,User,-,,Recall,Recall2,1576,Card,100,866,1473,1,1,,1
10120923LH,blysflro0p,"Mediated JOLs",1,176,2023-09-26T14:51:32+00:00,4.235023021698,3,versionB_stim.csv,ReadVersion.csv,Read,Read2,BOX,BEACH,Study1,M,62,91,Test,User,-,,Recall,Recall2,4111,Swaure,18.181818181818,3107,3962,0,0,,1
10120923LH,blysflro0p,"Mediated JOLs",1,177,2023-09-26T14:51:35+00:00,2.8616309165955,3,versionB_stim.csv,ReadVersion.csv,Read,Read2,SIGN,TICK,Study1,U,102,62,Test,User,-,,Recall,Recall2,2727,Pen,0,2039,2459,0,0,,1
10120923LH,blysflro0p,"Mediated JOLs",1,178,2023-09-26T14:51:38+00:00,2.7043991088867,3,versionB_stim.csv,ReadVersion.csv,Read,Read2,BOTTLE,CRY,Study1,M,71,68,Test,User,-,,Recall,Recall2,2432,Water,25,1532,2321,0,0,,1
10120923LH,blysflro0p,"Mediated JOLs",1,179,2023-09-26T14:51:39+00:00,1.9095737934113,3,versionB_stim.csv,ReadVersion.csv,Read,Read2,LISTEN,FICTION,Study1,U,99,92,Test,User,-,,Recall,Recall2,1745,Hea,0,1211,1474,0,0,,1
10120923LH,blysflro0p,"Mediated JOLs",1,180,2023-09-26T14:51:44+00:00,5.0318150520325,3,versionB_stim.csv,ReadVersion.csv,Read,Read2,HAIR,TOOTH,Study1,M,74,67,Test,User,-,,Recall,Recall2,4727,Brush,20,4015,4500,0,0,,1
10120923LH,blysflro0p,"Mediated JOLs",1,181,2023-09-26T14:51:49+00:00,4.4243609905243,3,versionB_stim.csv,ReadVersion.csv,Read,Read2,DARK,DAY,Study1,M,73,76,Test,User,-,,Recall,Recall2,4302,Black,25,1863,4053,0,0,,1
10120923LH,blysflro0p,"Mediated JOLs",1,182,2023-09-26T14:51:53+00:00,3.7905011177063,3,versionB_stim.csv,ReadVersion.csv,Read,Read2,WORD,SENTENCE,Study1,F,82,99,Test,User,-,,Recall,Recall2,3472,Runner,42.857142857143,2721,3353,0,0,,1
10120923LH,blysflro0p,"Mediated JOLs",1,183,2023-09-26T14:51:55+00:00,2.5031189918518,3,versionB_stim.csv,ReadVersion.csv,Read,Read2,PIE,BIRTHDAY,Study1,M,64,85,Test,User,-,,Recall,Recall2,2349,Cake,16.666666666667,1685,2140,0,0,,1
10120923LH,blysflro0p,"Mediated JOLs",1,184,2023-09-26T14:51:58+00:00,2.4034900665283,3,versionB_stim.csv,ReadVersion.csv,Read,Read2,CAKE,HAND,Study1,U,104,100,Test,User,-,,Recall,Recall2,2115,Pie,0,1597,1962,0,0,,1
10120923LH,blysflro0p,"Mediated JOLs",1,185,2023-09-26T14:52:00+00:00,2.590087890625,3,versionB_stim.csv,ReadVersion.csv,Read,Read2,WHEEL,HORSE,Study1,M,69,82,Test,User,-,,Recall,Recall2,2449,Barrell,33.333333333333,1282,2273,0,0,,1
10120923LH,blysflro0p,"Mediated JOLs",1,186,2023-09-26T14:52:03+00:00,3.2296850681305,3,versionB_stim.csv,ReadVersion.csv,Read,Read2,DANCE,CIRCLE,Study1,M,68,98,Test,User,-,,Recall,Recall2,3047,Monkey,16.666666666667,1119,2743,0,0,,1
10120923LH,blysflro0p,"Mediated JOLs",1,187,2023-09-26T14:52:07+00:00,3.5187089443207,3,versionB_stim.csv,ReadVersion.csv,Read,Read2,SILK,ROUGH,Study1,M,65,65,Test,User,-,,Recall,Recall2,3384,Fabric,18.181818181818,2504,3182,0,0,,1
10120923LH,blysflro0p,"Mediated JOLs",1,188,2023-09-26T14:52:10+00:00,2.8626730442047,3,versionB_stim.csv,ReadVersion.csv,Read,Read2,COTTON,HARD,Study1,M,75,86,Test,User,-,,Recall,Recall2,2733,Picker,20,2033,2601,0,0,,1
10120923LH,blysflro0p,"Mediated JOLs",1,189,2023-09-26T14:52:13+00:00,2.9358758926392,3,versionB_stim.csv,ReadVersion.csv,Read,Read2,KEYS,ROD,Study1,U,100,73,Test,User,-,,Recall,Recall2,2643,Jingle,0,1640,2485,0,0,,1
10120923LH,blysflro0p,"Mediated JOLs",1,190,2023-09-26T14:52:15+00:00,2.1640870571136,3,versionB_stim.csv,ReadVersion.csv,Read,Read2,LITTER,TRASH,Study1,F,76,106,Test,User,-,,Recall,Recall2,1928,Bug,0,1443,1751,0,0,,1
10120923LH,blysflro0p,"Mediated JOLs",1,191,2023-09-26T14:52:17+00:00,2.4818689823151,3,versionB_stim.csv,ReadVersion.csv,Read,Read2,ORCHID,FLOWER,Study1,F,89,81,Test,User,-,,Recall,Recall2,2202,FLower,100,1358,2031,1,1,,1
10120923LH,blysflro0p,"Mediated JOLs",1,192,2023-09-26T14:52:20+00:00,2.8280279636383,3,versionB_stim.csv,ReadVersion.csv,Read,Read2,SIP,DRINK,Study1,F,87,102,Test,User,-,,Recall,Recall2,2671,Drink,100,1818,2432,1,1,,1
10120923LH,blysflro0p,"Mediated JOLs",1,193,2023-09-26T14:52:23+00:00,2.640212059021,3,versionB_stim.csv,ReadVersion.csv,Read,Read2,BOUNCE,BAT,Study1,M,67,104,Test,User,-,,Recall,Recall2,2431,Jump,0,1735,2183,0,0,,1
10120923LH,blysflro0p,"Mediated JOLs",1,194,2023-09-26T14:52:25+00:00,1.8708939552307,3,versionB_stim.csv,ReadVersion.csv,Read,Read2,SCALP,HEAD,Study1,F,78,72,Test,User,-,,Recall,Recall2,1588,Hair,50,1075,1401,0,0,,1
10120923LH,blysflro0p,"Mediated JOLs",1,195,2023-09-26T14:52:27+00:00,2.4918990135193,3,versionB_stim.csv,ReadVersion.csv,Read,Read2,MIRROR,MAROON,Study1,U,91,78,Test,User,-,,Recall,Recall2,2349,Moriiro,46.153846153846,1326,1988,0,0,,1
10120923LH,blysflro0p,"Mediated JOLs",1,196,2023-09-26T14:52:31+00:00,3.4471869468689,3,versionB_stim.csv,ReadVersion.csv,Read,Read2,SYRUP,TREE,Study1,M,66,74,Test,User,-,,Recall,Recall2,3317,Waffel,20,1747,3094,0,0,,1
10120923LH,blysflro0p,"Mediated JOLs",1,197,2023-09-26T14:52:36+00:00,4.9998869895935,3,versionB_stim.csv,ReadVersion.csv,Read,Read2,STRIPES,LION,Study1,M,61,87,Test,User,-,,Recall,Recall2,4607,Pjs,0,3243,4441,0,0,,1
10120923LH,blysflro0p,"Mediated JOLs",1,198,2023-09-26T14:52:38+00:00,2.7011830806732,3,versionB_stim.csv,ReadVersion.csv,Read,Read2,STRETCH,CLOTH,Study1,U,92,71,Test,User,-,,Recall,Recall2,2411,Ypga,0,1432,2205,0,0,,1
10120923LH,blysflro0p,"Mediated JOLs",1,199,2023-09-26T14:52:40+00:00,2.0866320133209,3,versionB_stim.csv,ReadVersion.csv,Read,Read2,FUZZY,BANG,Study1,U,105,93,Test,User,-,,Recall,Recall2,1905,Bear,50,1303,1773,0,0,,1
10120923LH,blysflro0p,"Mediated JOLs",1,200,2023-09-26T14:52:43+00:00,2.5912139415741,3,versionB_stim.csv,ReadVersion.csv,Read,Read2,SOON,BELT,Study1,U,101,103,Test,User,-,,Recall,Recall2,2467,Now,0,2076,2339,0,0,,1
10120923LH,blysflro0p,"Mediated JOLs",1,201,2023-09-26T14:52:45+00:00,1.6215600967407,3,versionB_stim.csv,ReadVersion.csv,Read,Read2,TUNA,FISH,Study1,F,90,77,Test,User,-,,Recall,Recall2,1490,Fish,100,961,1284,1,1,,1
10120923LH,blysflro0p,"Mediated JOLs",1,202,2023-09-26T14:52:47+00:00,2.1489720344543,3,versionB_stim.csv,ReadVersion.csv,Read,Read2,WAGE,MONEY,Study1,F,77,90,Test,User,-,,Recall,Recall2,1977,MOney,100,1125,1708,1,1,,1
10120923LH,blysflro0p,"Mediated JOLs",1,203,2023-09-26T14:52:49+00:00,2.0927369594574,3,versionB_stim.csv,ReadVersion.csv,Read,Read2,NAP,SLEEP,Study1,F,84,95,Test,User,-,,Recall,Recall2,1846,Sleep,100,1059,1661,1,1,,1
10120923LH,blysflro0p,"Mediated JOLs",1,204,2023-09-26T14:52:54+00:00,4.8934419155121,3,versionB_stim.csv,ReadVersion.csv,Read,Read2,MEAT,KEYS,Study1,U,96,79,Test,User,-,,Recall,Recall2,4537,Steak,22.222222222222,1581,4288,0,0,,1
10120923LH,blysflro0p,"Mediated JOLs",1,205,2023-09-26T14:52:57+00:00,3.682902097702,3,versionB_stim.csv,ReadVersion.csv,Read,Read2,GIVE,STEAK,Study1,U,93,89,Test,User,-,,Recall,Recall2,3294,Take,66.666666666667,2800,3167,0,0,,1
10120923LH,blysflro0p,"Mediated JOLs",1,206,2023-09-26T14:52:59+00:00,1.8839428424835,3,versionB_stim.csv,ReadVersion.csv,Read,Read2,TEMPERATURE,MORNING,Study1,U,103,83,Test,User,-,,Recall,Recall2,1655,Hot,20,1239,1462,0,0,,1
10120923LH,blysflro0p,"Mediated JOLs",1,207,2023-09-26T14:53:02+00:00,2.2707509994507,3,versionB_stim.csv,ReadVersion.csv,Read,Read2,MULE,DONKEY,Study1,F,85,63,Test,User,-,,Recall,Recall2,2097,Cold,20,1555,1943,0,0,,1
10120923LH,blysflro0p,"Mediated JOLs",1,208,2023-09-26T14:53:04+00:00,2.408420085907,3,versionB_stim.csv,ReadVersion.csv,Read,Read2,SWAN,BIRD,Study1,F,81,75,Test,User,-,,Recall,Recall2,2140,Lake,0,1533,1994,0,0,,1
10120923LH,blysflro0p,"Mediated JOLs",1,209,2023-09-26T14:53:07+00:00,2.6204431056976,3,versionB_stim.csv,ReadVersion.csv,Read,Read2,CARPET,CEILING,Study1,M,70,69,Test,User,-,,Recall,Recall2,2463,Runnner,14.285714285714,1671,2359,0,0,,1
10120923LH,blysflro0p,"Mediated JOLs",1,210,2023-09-26T14:53:09+00:00,2.635999917984,3,versionB_stim.csv,ReadVersion.csv,Read,Read2,ROOT,PLANT,Study1,F,80,94,Test,User,-,,Recall,Recall2,2484,Tree,22.222222222222,1824,2313,0,0,,1
10120923LH,blysflro0p,"Mediated JOLs",1,211,2023-09-26T14:53:11+00:00,1.6232249736786,3,versionB_stim.csv,ReadVersion.csv,Read,Read2,,,,,,0,Instruct,User,-,"You have completed this section. Please press Enter.",,Instruct7,1457,,,-1,-1,,,,1
10120923LH,blysflro0p,"Mediated JOLs",1,212,2023-09-26T14:53:13+00:00,2.5978639125824,3,versionB_stim.csv,ReadVersion.csv,Read,Read2,,,,,,0,Instruct,User,-,"The following screen will ask you a few questions abour your experience today. You must complete these questions to receive credit.",,Instruct8,2413,,,-1,-1,,,,1
