Username,ID,ExperimentName,Session,Trial,Date,TimeDif,"Condition Number","Stimuli File","Order File","Condition Description","Condition Notes",Stimuli*Cue,Stimuli*Answer,Stimuli*Shuffle,"Stimuli*Stimuli Notes",Stimuli*Value,Procedure*Item,"Procedure*Trial Type","Procedure*Max Time","Procedure*Min Time",Procedure*Text,"Procedure*Procedure Notes",Procedure*Shuffle,Response*RT,Response*Response,Response*Accuracy,Response*RTfirst,Response*RTlast,Response*strictAcc,Response*lenientAcc,Response*focus,Response*Focus
W10133649_mjh,qsauce6m63,"Mediated JOLs",1,1,2024-04-15T21:55:24+00:00,25.882471084595,1,versionA_stim.csv,ReadVersion.csv,Read,Read1,,,,,,0,Instruct,-,5,"In this section, you will be presented with a series of word pairs. Please study each word pair! Your memory will be tested!",Initial_Instruct,Instruct1,25282,,,-1,-1,,,,1
W10133649_mjh,qsauce6m63,"Mediated JOLs",1,2,2024-04-15T21:55:26+00:00,2.1758468151093,1,versionA_stim.csv,ReadVersion.csv,Read,Read1,,,,,,0,Instruct,User,-,"You will now begin. Press Enter when you are ready to begin.",,Instruct16,1738,,,-1,-1,,,,1
W10133649_mjh,qsauce6m63,"Mediated JOLs",1,3,2024-04-15T21:55:37+00:00,10.967413187027,1,versionA_stim.csv,ReadVersion.csv,Read,Read1,TREES,GREEN,BUFFER1,Buffer,1,6,Study,User,-,,Study/JOL,BUFFER,10608,,,-1,-1,,,,1
W10133649_mjh,qsauce6m63,"Mediated JOLs",1,4,2024-04-15T21:55:40+00:00,3.1916987895966,1,versionA_stim.csv,ReadVersion.csv,Read,Read1,PITCHER,CATCHER,BUFFER1,Buffer,2,3,Study,User,-,,Study/JOL,BUFFER,2990,,,-1,-1,,,,1
W10133649_mjh,qsauce6m63,"Mediated JOLs",1,5,2024-04-15T21:55:42+00:00,1.8214960098267,1,versionA_stim.csv,ReadVersion.csv,Read,Read1,SCARE,FRIGHT,BUFFER1,Buffer,4,2,Study,User,-,,Study/JOL,BUFFER,1610,,,-1,-1,,,,1
W10133649_mjh,qsauce6m63,"Mediated JOLs",1,6,2024-04-15T21:55:46+00:00,3.7287781238556,1,versionA_stim.csv,ReadVersion.csv,Read,Read1,SPACE,JAM,BUFFER1,Buffer,5,4,Study,User,-,,Study/JOL,BUFFER,3529,,,-1,-1,,,,1
W10133649_mjh,qsauce6m63,"Mediated JOLs",1,7,2024-04-15T21:55:48+00:00,1.8866498470306,1,versionA_stim.csv,ReadVersion.csv,Read,Read1,PEANUT,BUTTER,BUFFER1,Buffer,3,5,Study,User,-,,Study/JOL,BUFFER,1673,,,-1,-1,,,,1
W10133649_mjh,qsauce6m63,"Mediated JOLs",1,8,2024-04-15T21:55:49+00:00,1.2219121456146,1,versionA_stim.csv,ReadVersion.csv,Read,Read1,MIRROR,MAROON,Study1,U,36,47,Study,User,-,,Study/JOL,"Study Phase",748,,,-1,-1,,,,1
W10133649_mjh,qsauce6m63,"Mediated JOLs",1,9,2024-04-15T21:55:51+00:00,1.6448700428009,1,versionA_stim.csv,ReadVersion.csv,Read,Read1,MULE,DONKEY,Study1,F,24,44,Study,User,-,,Study/JOL,"Study Phase",1454,,,-1,-1,,,,1
W10133649_mjh,qsauce6m63,"Mediated JOLs",1,10,2024-04-15T21:55:54+00:00,2.7937219142914,1,versionA_stim.csv,ReadVersion.csv,Read,Read1,ROUGH,WORM,Study1,M,10,7,Study,User,-,,Study/JOL,"Study Phase",1979,,,-1,-1,,,,1
W10133649_mjh,qsauce6m63,"Mediated JOLs",1,11,2024-04-15T21:55:55+00:00,1.485701084137,1,versionA_stim.csv,ReadVersion.csv,Read,Read1,CAKE,HAND,Study1,U,49,26,Study,User,-,,Study/JOL,"Study Phase",1273,,,-1,-1,,,,1
W10133649_mjh,qsauce6m63,"Mediated JOLs",1,12,2024-04-15T21:55:56+00:00,1.3731338977814,1,versionA_stim.csv,ReadVersion.csv,Read,Read1,VEHICLE,CHARM,Study1,U,40,43,Study,User,-,,Study/JOL,"Study Phase",888,,,-1,-1,,,,1
W10133649_mjh,qsauce6m63,"Mediated JOLs",1,13,2024-04-15T21:55:59+00:00,2.1408541202545,1,versionA_stim.csv,ReadVersion.csv,Read,Read1,WAR,LOUD,Study1,M,8,40,Study,User,-,,Study/JOL,"Study Phase",1926,,,-1,-1,,,,1
W10133649_mjh,qsauce6m63,"Mediated JOLs",1,14,2024-04-15T21:56:00+00:00,1.8590579032898,1,versionA_stim.csv,ReadVersion.csv,Read,Read1,CRY,BEER,Study1,M,16,21,Study,User,-,,Study/JOL,"Study Phase",1414,,,-1,-1,,,,1
W10133649_mjh,qsauce6m63,"Mediated JOLs",1,15,2024-04-15T21:56:01+00:00,0.99149489402771,1,versionA_stim.csv,ReadVersion.csv,Read,Read1,LITTER,TRASH,Study1,F,21,41,Study,User,-,,Study/JOL,"Study Phase",784,,,-1,-1,,,,1
W10133649_mjh,qsauce6m63,"Mediated JOLs",1,16,2024-04-15T21:56:03+00:00,1.5921921730042,1,versionA_stim.csv,ReadVersion.csv,Read,Read1,SWAN,BIRD,Study1,F,26,28,Study,User,-,,Study/JOL,"Study Phase",1372,,,-1,-1,,,,1
W10133649_mjh,qsauce6m63,"Mediated JOLs",1,17,2024-04-15T21:56:05+00:00,1.8536789417267,1,versionA_stim.csv,ReadVersion.csv,Read,Read1,CRACKLE,ELECTION,Study1,U,39,39,Study,User,-,,Study/JOL,"Study Phase",1369,,,-1,-1,,,,1
W10133649_mjh,qsauce6m63,"Mediated JOLs",1,18,2024-04-15T21:56:06+00:00,1.321573972702,1,versionA_stim.csv,ReadVersion.csv,Read,Read1,TEMPERATURE,MORNING,Study1,U,48,51,Study,User,-,,Study/JOL,"Study Phase",1090,,,-1,-1,,,,1
W10133649_mjh,qsauce6m63,"Mediated JOLs",1,19,2024-04-15T21:56:08+00:00,1.6372051239014,1,versionA_stim.csv,ReadVersion.csv,Read,Read1,SHELL,SHAKE,Study1,U,43,27,Study,User,-,,Study/JOL,"Study Phase",1444,,,-1,-1,,,,1
W10133649_mjh,qsauce6m63,"Mediated JOLs",1,20,2024-04-15T21:56:09+00:00,1.4165508747101,1,versionA_stim.csv,ReadVersion.csv,Read,Read1,MULE,DONKEY,Study1,F,30,25,Study,User,-,,Study/JOL,"Study Phase",1233,,,-1,-1,,,,1
W10133649_mjh,qsauce6m63,"Mediated JOLs",1,21,2024-04-15T21:56:11+00:00,1.7521579265594,1,versionA_stim.csv,ReadVersion.csv,Read,Read1,SIGN,TICK,Study1,U,47,10,Study,User,-,,Study/JOL,"Study Phase",1533,,,-1,-1,,,,1
W10133649_mjh,qsauce6m63,"Mediated JOLs",1,22,2024-04-15T21:56:12+00:00,0.99014616012573,1,versionA_stim.csv,ReadVersion.csv,Read,Read1,SIP,DRINK,Study1,F,32,36,Study,User,-,,Study/JOL,"Study Phase",809,,,-1,-1,,,,1
W10133649_mjh,qsauce6m63,"Mediated JOLs",1,23,2024-04-15T21:56:13+00:00,0.96236705780029,1,versionA_stim.csv,ReadVersion.csv,Read,Read1,GIVE,STEAK,Study1,U,38,45,Study,User,-,,Study/JOL,"Study Phase",762,,,-1,-1,,,,1
W10133649_mjh,qsauce6m63,"Mediated JOLs",1,24,2024-04-15T21:56:15+00:00,1.7233607769012,1,versionA_stim.csv,ReadVersion.csv,Read,Read1,TREE,PANCAKES,Study1,M,11,11,Study,User,-,,Study/JOL,"Study Phase",1514,,,-1,-1,,,,1
W10133649_mjh,qsauce6m63,"Mediated JOLs",1,25,2024-04-15T21:56:17+00:00,1.8948941230774,1,versionA_stim.csv,ReadVersion.csv,Read,Read1,BAT,JUMP,Study1,M,12,35,Study,User,-,,Study/JOL,"Study Phase",1370,,,-1,-1,,,,1
W10133649_mjh,qsauce6m63,"Mediated JOLs",1,26,2024-04-15T21:56:18+00:00,1.307806968689,1,versionA_stim.csv,ReadVersion.csv,Read,Read1,WAGE,MONEY,Study1,F,22,49,Study,User,-,,Study/JOL,"Study Phase",829,,,-1,-1,,,,1
W10133649_mjh,qsauce6m63,"Mediated JOLs",1,27,2024-04-15T21:56:19+00:00,1.3430080413818,1,versionA_stim.csv,ReadVersion.csv,Read,Read1,HORSE,TIRE,Study1,M,14,31,Study,User,-,,Study/JOL,"Study Phase",1085,,,-1,-1,,,,1
W10133649_mjh,qsauce6m63,"Mediated JOLs",1,28,2024-04-15T21:56:20+00:00,1.3081870079041,1,versionA_stim.csv,ReadVersion.csv,Read,Read1,ORCHID,FLOWER,Study1,F,34,9,Study,User,-,,Study/JOL,"Study Phase",1079,,,-1,-1,,,,1
W10133649_mjh,qsauce6m63,"Mediated JOLs",1,29,2024-04-15T21:56:22+00:00,1.2957880496979,1,versionA_stim.csv,ReadVersion.csv,Read,Read1,TUNA,FISH,Study1,F,35,12,Study,User,-,,Study/JOL,"Study Phase",1029,,,-1,-1,,,,1
W10133649_mjh,qsauce6m63,"Mediated JOLs",1,30,2024-04-15T21:56:24+00:00,1.8508908748627,1,versionA_stim.csv,ReadVersion.csv,Read,Read1,CIRCLE,FUN,Study1,M,13,13,Study,User,-,,Study/JOL,"Study Phase",1047,,,-1,-1,,,,1
W10133649_mjh,qsauce6m63,"Mediated JOLs",1,31,2024-04-15T21:56:26+00:00,2.1100001335144,1,versionA_stim.csv,ReadVersion.csv,Read,Read1,LISTEN,FICTION,Study1,U,44,38,Study,User,-,,Study/JOL,"Study Phase",1904,,,-1,-1,,,,1
W10133649_mjh,qsauce6m63,"Mediated JOLs",1,32,2024-04-15T21:56:27+00:00,1.3113408088684,1,versionA_stim.csv,ReadVersion.csv,Read,Read1,WEDDING,HAND,Study1,M,17,22,Study,User,-,,Study/JOL,"Study Phase",818,,,-1,-1,,,,1
W10133649_mjh,qsauce6m63,"Mediated JOLs",1,33,2024-04-15T21:56:28+00:00,1.4128270149231,1,versionA_stim.csv,ReadVersion.csv,Read,Read1,CREDIT,CARD,Study1,F,33,34,Study,User,-,,Study/JOL,"Study Phase",1177,,,-1,-1,,,,1
W10133649_mjh,qsauce6m63,"Mediated JOLs",1,34,2024-04-15T21:56:31+00:00,2.0624639987946,1,versionA_stim.csv,ReadVersion.csv,Read,Read1,DAY,BLACK,Study1,M,18,46,Study,User,-,,Study/JOL,"Study Phase",1274,,,-1,-1,,,,1
W10133649_mjh,qsauce6m63,"Mediated JOLs",1,35,2024-04-15T21:56:33+00:00,1.9773440361023,1,versionA_stim.csv,ReadVersion.csv,Read,Read1,SOON,BELT,Study1,U,46,15,Study,User,-,,Study/JOL,"Study Phase",1196,,,-1,-1,,,,1
W10133649_mjh,qsauce6m63,"Mediated JOLs",1,36,2024-04-15T21:56:34+00:00,1.415580034256,1,versionA_stim.csv,ReadVersion.csv,Read,Read1,TOOTH,COMB,Study1,M,19,33,Study,User,-,,Study/JOL,"Study Phase",1215,,,-1,-1,,,,1
W10133649_mjh,qsauce6m63,"Mediated JOLs",1,37,2024-04-15T21:56:36+00:00,2.090320110321,1,versionA_stim.csv,ReadVersion.csv,Read,Read1,STRETCH,CLOTH,Study1,U,37,24,Study,User,-,,Study/JOL,"Study Phase",1249,,,-1,-1,,,,1
W10133649_mjh,qsauce6m63,"Mediated JOLs",1,38,2024-04-15T21:56:38+00:00,1.8112299442291,1,versionA_stim.csv,ReadVersion.csv,Read,Read1,KEYS,ROD,Study1,U,45,8,Study,User,-,,Study/JOL,"Study Phase",986,,,-1,-1,,,,1
W10133649_mjh,qsauce6m63,"Mediated JOLs",1,39,2024-04-15T21:56:39+00:00,1.2353069782257,1,versionA_stim.csv,ReadVersion.csv,Read,Read1,BIRTHDAY,APPLE,Study1,M,9,32,Study,User,-,,Study/JOL,"Study Phase",1009,,,-1,-1,,,,1
W10133649_mjh,qsauce6m63,"Mediated JOLs",1,40,2024-04-15T21:56:41+00:00,1.8475179672241,1,versionA_stim.csv,ReadVersion.csv,Read,Read1,BEACH,SQUARE,Study1,M,7,17,Study,User,-,,Study/JOL,"Study Phase",996,,,-1,-1,,,,1
W10133649_mjh,qsauce6m63,"Mediated JOLs",1,41,2024-04-15T21:56:43+00:00,1.6008560657501,1,versionA_stim.csv,ReadVersion.csv,Read,Read1,NAP,SLEEP,Study1,F,29,48,Study,User,-,,Study/JOL,"Study Phase",1364,,,-1,-1,,,,1
W10133649_mjh,qsauce6m63,"Mediated JOLs",1,42,2024-04-15T21:56:44+00:00,1.2251799106598,1,versionA_stim.csv,ReadVersion.csv,Read,Read1,SCALP,HEAD,Study1,F,23,50,Study,User,-,,Study/JOL,"Study Phase",1008,,,-1,-1,,,,1
W10133649_mjh,qsauce6m63,"Mediated JOLs",1,43,2024-04-15T21:56:45+00:00,1.1880309581757,1,versionA_stim.csv,ReadVersion.csv,Read,Read1,AFFECTION,LOVE,Study1,F,31,42,Study,User,-,,Study/JOL,"Study Phase",974,,,-1,-1,,,,1
W10133649_mjh,qsauce6m63,"Mediated JOLs",1,44,2024-04-15T21:56:46+00:00,0.85604214668274,1,versionA_stim.csv,ReadVersion.csv,Read,Read1,HARD,BALL,Study1,M,20,23,Study,User,-,,Study/JOL,"Study Phase",637,,,-1,-1,,,,1
W10133649_mjh,qsauce6m63,"Mediated JOLs",1,45,2024-04-15T21:56:47+00:00,0.81269383430481,1,versionA_stim.csv,ReadVersion.csv,Read,Read1,ROOT,PLANT,Study1,F,25,16,Study,User,-,,Study/JOL,"Study Phase",621,,,-1,-1,,,,1
W10133649_mjh,qsauce6m63,"Mediated JOLs",1,46,2024-04-15T21:56:47+00:00,0.78291702270508,1,versionA_stim.csv,ReadVersion.csv,Read,Read1,MAZE,PHONE,Study1,U,42,37,Study,User,-,,Study/JOL,"Study Phase",552,,,-1,-1,,,,1
W10133649_mjh,qsauce6m63,"Mediated JOLs",1,47,2024-04-15T21:56:48+00:00,0.72720813751221,1,versionA_stim.csv,ReadVersion.csv,Read,Read1,WORD,SENTENCE,Study1,F,27,29,Study,User,-,,Study/JOL,"Study Phase",508,,,-1,-1,,,,1
W10133649_mjh,qsauce6m63,"Mediated JOLs",1,48,2024-04-15T21:56:49+00:00,0.82470488548279,1,versionA_stim.csv,ReadVersion.csv,Read,Read1,HYGIENE,CLEAN,Study1,F,28,18,Study,User,-,,Study/JOL,"Study Phase",602,,,-1,-1,,,,1
W10133649_mjh,qsauce6m63,"Mediated JOLs",1,49,2024-04-15T21:56:50+00:00,0.74618411064148,1,versionA_stim.csv,ReadVersion.csv,Read,Read1,LION,FLAG,Study1,M,6,20,Study,User,-,,Study/JOL,"Study Phase",532,,,-1,-1,,,,1
W10133649_mjh,qsauce6m63,"Mediated JOLs",1,50,2024-04-15T21:56:51+00:00,0.93633985519409,1,versionA_stim.csv,ReadVersion.csv,Read,Read1,FUZZY,BANG,Study1,U,50,14,Study,User,-,,Study/JOL,"Study Phase",696,,,-1,-1,,,,1
W10133649_mjh,qsauce6m63,"Mediated JOLs",1,51,2024-04-15T21:56:52+00:00,0.95342516899109,1,versionA_stim.csv,ReadVersion.csv,Read,Read1,CEILING,RUG,Study1,M,15,19,Study,User,-,,Study/JOL,"Study Phase",733,,,-1,-1,,,,1
W10133649_mjh,qsauce6m63,"Mediated JOLs",1,52,2024-04-15T21:56:53+00:00,0.95428395271301,1,versionA_stim.csv,ReadVersion.csv,Read,Read1,MEAT,KEYS,Study1,U,41,30,Study,User,-,,Study/JOL,"Study Phase",726,,,-1,-1,,,,1
W10133649_mjh,qsauce6m63,"Mediated JOLs",1,53,2024-04-15T21:56:53+00:00,0.88550305366516,1,versionA_stim.csv,ReadVersion.csv,Read,Read1,CARROT,POTATO,BUFFER4,Buffer,106,107,Study,User,-,,Study/JOL,BUFFER2,681,,,-1,-1,,,,1
W10133649_mjh,qsauce6m63,"Mediated JOLs",1,54,2024-04-15T21:56:54+00:00,0.77553200721741,1,versionA_stim.csv,ReadVersion.csv,Read,Read1,MONTH,YEAR,BUFFER3,Buffer,57,57,Study,User,-,,Study/JOL,BUFFER2,571,,,-1,-1,,,,1
W10133649_mjh,qsauce6m63,"Mediated JOLs",1,55,2024-04-15T21:56:55+00:00,0.74795889854431,1,versionA_stim.csv,ReadVersion.csv,Read,Read1,SPRING,MARCH,BUFFER3,Buffer,59,61,Study,User,-,,Study/JOL,BUFFER2,536,,,-1,-1,,,,1
W10133649_mjh,qsauce6m63,"Mediated JOLs",1,56,2024-04-15T21:56:56+00:00,1.5340049266815,1,versionA_stim.csv,ReadVersion.csv,Read,Read1,CAMP,ADVENTURE,BUFFER4,Buffer,110,111,Study,User,-,,Study/JOL,BUFFER2,1299,,,-1,-1,,,,1
W10133649_mjh,qsauce6m63,"Mediated JOLs",1,57,2024-04-15T21:56:57+00:00,0.82569217681885,1,versionA_stim.csv,ReadVersion.csv,Read,Read1,ICE,FROZEN,BUFFER4,Buffer,109,108,Study,User,-,,Study/JOL,BUFFER2,603,,,-1,-1,,,,1
W10133649_mjh,qsauce6m63,"Mediated JOLs",1,58,2024-04-15T21:56:59+00:00,1.347393989563,1,versionA_stim.csv,ReadVersion.csv,Read,Read1,,,,,,0,Instruct,User,-,"You have completed this section. Please press Enter.",Filler_Instruction,Instruct2,1131,,,-1,-1,,,,1
W10133649_mjh,qsauce6m63,"Mediated JOLs",1,59,2024-04-15T21:58:59+00:00,120.32143902779,1,versionA_stim.csv,ReadVersion.csv,Read,Read1,,,,,,0,FreeRecall,120,120,"Please list the 50 US states in alphabetical order. The task will automatically advance to the next screen after two minutes.",,Filler1,120001,"alabama alaska arizona arkansas california colorado connitcut delaware georgia hawaii idaho illinois indiana iowa kansas kentucy louisiana maine maryland massachsetts michgan minnesota mississippi missouri nebraska nevada new hampshire new mexico new york north carolina north ",0,4145,119929,0,0,,1
W10133649_mjh,qsauce6m63,"Mediated JOLs",1,60,2024-04-15T21:59:16+00:00,17.528393983841,1,versionA_stim.csv,ReadVersion.csv,Read,Read1,,,,,,0,Instruct,-,10,"You will now be presented with the first word from each of the previously studied item pairs. Please type the missing word. If you do not know the word, you may guess or press Enter to skip forward to the next pair.",,Instruct3,17327,,,-1,-1,,,,1
W10133649_mjh,qsauce6m63,"Mediated JOLs",1,61,2024-04-15T21:59:21+00:00,4.1208868026733,1,versionA_stim.csv,ReadVersion.csv,Read,Read1,TEMPERATURE,MORNING,Study1,U,48,51,Test,User,-,,Recall,Recall1,3908,morning,100,1995,3375,1,1,,1
W10133649_mjh,qsauce6m63,"Mediated JOLs",1,62,2024-04-15T21:59:22+00:00,1.4185421466827,1,versionA_stim.csv,ReadVersion.csv,Read,Read1,BEACH,SQUARE,Study1,M,7,17,Test,User,-,,Recall,Recall1,1252,,0,-1,-1,0,0,,1
W10133649_mjh,qsauce6m63,"Mediated JOLs",1,63,2024-04-15T21:59:23+00:00,1.2212500572205,1,versionA_stim.csv,ReadVersion.csv,Read,Read1,KEYS,ROD,Study1,U,45,8,Test,User,-,,Recall,Recall1,1081,,0,-1,-1,0,0,,1
W10133649_mjh,qsauce6m63,"Mediated JOLs",1,64,2024-04-15T21:59:26+00:00,2.5356018543243,1,versionA_stim.csv,ReadVersion.csv,Read,Read1,CEILING,RUG,Study1,M,15,19,Test,User,-,,Recall,Recall1,2347,,0,-1,-1,0,0,,1
W10133649_mjh,qsauce6m63,"Mediated JOLs",1,65,2024-04-15T21:59:29+00:00,2.9454109668732,1,versionA_stim.csv,ReadVersion.csv,Read,Read1,SHELL,SHAKE,Study1,U,43,27,Test,User,-,,Recall,Recall1,2741,beach,20,1628,2587,0,0,,1
W10133649_mjh,qsauce6m63,"Mediated JOLs",1,66,2024-04-15T21:59:30+00:00,1.7328281402588,1,versionA_stim.csv,ReadVersion.csv,Read,Read1,HORSE,TIRE,Study1,M,14,31,Test,User,-,,Recall,Recall1,1599,,0,-1,-1,0,0,,1
W10133649_mjh,qsauce6m63,"Mediated JOLs",1,67,2024-04-15T21:59:32+00:00,2.0276379585266,1,versionA_stim.csv,ReadVersion.csv,Read,Read1,MULE,DONKEY,Study1,F,24,44,Test,User,-,,Recall,Recall1,1835,donkey,100,928,1568,1,1,,1
W10133649_mjh,qsauce6m63,"Mediated JOLs",1,68,2024-04-15T21:59:34+00:00,1.7750480175018,1,versionA_stim.csv,ReadVersion.csv,Read,Read1,MEAT,KEYS,Study1,U,41,30,Test,User,-,,Recall,Recall1,1653,,0,-1,-1,0,0,,1
W10133649_mjh,qsauce6m63,"Mediated JOLs",1,69,2024-04-15T21:59:36+00:00,1.94895195961,1,versionA_stim.csv,ReadVersion.csv,Read,Read1,AFFECTION,LOVE,Study1,F,31,42,Test,User,-,,Recall,Recall1,1492,love,100,955,1396,1,1,,1
W10133649_mjh,qsauce6m63,"Mediated JOLs",1,70,2024-04-15T21:59:38+00:00,1.7637939453125,1,versionA_stim.csv,ReadVersion.csv,Read,Read1,MAZE,PHONE,Study1,U,42,37,Test,User,-,,Recall,Recall1,1535,phone,100,924,1484,1,1,,1
W10133649_mjh,qsauce6m63,"Mediated JOLs",1,71,2024-04-15T21:59:40+00:00,1.9807050228119,1,versionA_stim.csv,ReadVersion.csv,Read,Read1,ORCHID,FLOWER,Study1,F,34,9,Test,User,-,,Recall,Recall1,1789,flower,100,905,1665,1,1,,1
W10133649_mjh,qsauce6m63,"Mediated JOLs",1,72,2024-04-15T21:59:46+00:00,6.0360510349274,1,versionA_stim.csv,ReadVersion.csv,Read,Read1,SIP,DRINK,Study1,F,32,36,Test,User,-,,Recall,Recall1,5569,beverage,15.384615384615,1687,5423,0,0,,1
W10133649_mjh,qsauce6m63,"Mediated JOLs",1,73,2024-04-15T21:59:49+00:00,2.5845949649811,1,versionA_stim.csv,ReadVersion.csv,Read,Read1,MULE,DONKEY,Study1,F,30,25,Test,User,-,,Recall,Recall1,2117,donkey,100,1032,1841,1,1,,1
W10133649_mjh,qsauce6m63,"Mediated JOLs",1,74,2024-04-15T21:59:50+00:00,1.5385510921478,1,versionA_stim.csv,ReadVersion.csv,Read,Read1,CREDIT,CARD,Study1,F,33,34,Test,User,-,,Recall,Recall1,1352,card,100,725,1288,1,1,,1
W10133649_mjh,qsauce6m63,"Mediated JOLs",1,75,2024-04-15T21:59:52+00:00,2.3071558475494,1,versionA_stim.csv,ReadVersion.csv,Read,Read1,BAT,JUMP,Study1,M,12,35,Test,User,-,,Recall,Recall1,1551,,0,-1,-1,0,0,,1
W10133649_mjh,qsauce6m63,"Mediated JOLs",1,76,2024-04-15T21:59:54+00:00,1.5234019756317,1,versionA_stim.csv,ReadVersion.csv,Read,Read1,WORD,SENTENCE,Study1,F,27,29,Test,User,-,,Recall,Recall1,831,,0,-1,-1,0,0,,1
W10133649_mjh,qsauce6m63,"Mediated JOLs",1,77,2024-04-15T21:59:56+00:00,1.9495980739594,1,versionA_stim.csv,ReadVersion.csv,Read,Read1,DAY,BLACK,Study1,M,18,46,Test,User,-,,Recall,Recall1,1775,,0,-1,-1,0,0,,1
W10133649_mjh,qsauce6m63,"Mediated JOLs",1,78,2024-04-15T21:59:58+00:00,1.8722281455994,1,versionA_stim.csv,ReadVersion.csv,Read,Read1,HARD,BALL,Study1,M,20,23,Test,User,-,,Recall,Recall1,1440,,0,-1,-1,0,0,,1
W10133649_mjh,qsauce6m63,"Mediated JOLs",1,79,2024-04-15T21:59:59+00:00,1.6583378314972,1,versionA_stim.csv,ReadVersion.csv,Read,Read1,ROUGH,WORM,Study1,M,10,7,Test,User,-,,Recall,Recall1,877,,0,-1,-1,0,0,,1
W10133649_mjh,qsauce6m63,"Mediated JOLs",1,80,2024-04-15T22:00:01+00:00,1.1389961242676,1,versionA_stim.csv,ReadVersion.csv,Read,Read1,SOON,BELT,Study1,U,46,15,Test,User,-,,Recall,Recall1,923,,0,-1,-1,0,0,,1
W10133649_mjh,qsauce6m63,"Mediated JOLs",1,81,2024-04-15T22:00:03+00:00,2.410190820694,1,versionA_stim.csv,ReadVersion.csv,Read,Read1,HYGIENE,CLEAN,Study1,F,28,18,Test,User,-,,Recall,Recall1,2204,clean,100,1412,1892,1,1,,1
W10133649_mjh,qsauce6m63,"Mediated JOLs",1,82,2024-04-15T22:00:05+00:00,1.7565040588379,1,versionA_stim.csv,ReadVersion.csv,Read,Read1,WAGE,MONEY,Study1,F,22,49,Test,User,-,,Recall,Recall1,1535,money,100,850,1306,1,1,,1
W10133649_mjh,qsauce6m63,"Mediated JOLs",1,83,2024-04-15T22:00:06+00:00,0.96197700500488,1,versionA_stim.csv,ReadVersion.csv,Read,Read1,SIGN,TICK,Study1,U,47,10,Test,User,-,,Recall,Recall1,823,,0,-1,-1,0,0,,1
W10133649_mjh,qsauce6m63,"Mediated JOLs",1,84,2024-04-15T22:00:07+00:00,1.0727541446686,1,versionA_stim.csv,ReadVersion.csv,Read,Read1,CRY,BEER,Study1,M,16,21,Test,User,-,,Recall,Recall1,900,,0,-1,-1,0,0,,1
W10133649_mjh,qsauce6m63,"Mediated JOLs",1,85,2024-04-15T22:00:10+00:00,2.7891209125519,1,versionA_stim.csv,ReadVersion.csv,Read,Read1,SWAN,BIRD,Study1,F,26,28,Test,User,-,,Recall,Recall1,2642,bird,100,949,2509,1,1,,1
W10133649_mjh,qsauce6m63,"Mediated JOLs",1,86,2024-04-15T22:00:11+00:00,1.6458969116211,1,versionA_stim.csv,ReadVersion.csv,Read,Read1,CIRCLE,FUN,Study1,M,13,13,Test,User,-,,Recall,Recall1,1481,fun,100,1068,1298,1,1,,1
W10133649_mjh,qsauce6m63,"Mediated JOLs",1,87,2024-04-15T22:00:13+00:00,1.8264911174774,1,versionA_stim.csv,ReadVersion.csv,Read,Read1,LION,FLAG,Study1,M,6,20,Test,User,-,,Recall,Recall1,1069,,0,-1,-1,0,0,,1
W10133649_mjh,qsauce6m63,"Mediated JOLs",1,88,2024-04-15T22:00:16+00:00,2.5048999786377,1,versionA_stim.csv,ReadVersion.csv,Read,Read1,CAKE,HAND,Study1,U,49,26,Test,User,-,,Recall,Recall1,2074,,0,-1,-1,0,0,,1
W10133649_mjh,qsauce6m63,"Mediated JOLs",1,89,2024-04-15T22:00:18+00:00,2.5412309169769,1,versionA_stim.csv,ReadVersion.csv,Read,Read1,TUNA,FISH,Study1,F,35,12,Test,User,-,,Recall,Recall1,2095,fish,100,1585,1873,1,1,,1
W10133649_mjh,qsauce6m63,"Mediated JOLs",1,90,2024-04-15T22:00:19+00:00,1.2905111312866,1,versionA_stim.csv,ReadVersion.csv,Read,Read1,SCALP,HEAD,Study1,F,23,50,Test,User,-,,Recall,Recall1,867,,0,-1,-1,0,0,,1
W10133649_mjh,qsauce6m63,"Mediated JOLs",1,91,2024-04-15T22:00:23+00:00,3.5367159843445,1,versionA_stim.csv,ReadVersion.csv,Read,Read1,ROOT,PLANT,Study1,F,25,16,Test,User,-,,Recall,Recall1,3341,plant,100,2404,3150,1,1,,1
W10133649_mjh,qsauce6m63,"Mediated JOLs",1,92,2024-04-15T22:00:24+00:00,1.5373530387878,1,versionA_stim.csv,ReadVersion.csv,Read,Read1,WAR,LOUD,Study1,M,8,40,Test,User,-,,Recall,Recall1,1394,,0,-1,-1,0,0,,1
W10133649_mjh,qsauce6m63,"Mediated JOLs",1,93,2024-04-15T22:00:29+00:00,4.2499668598175,1,versionA_stim.csv,ReadVersion.csv,Read,Read1,CRACKLE,ELECTION,Study1,U,39,39,Test,User,-,,Recall,Recall1,3492,electin,93.333333333333,1718,3256,0,1,,1
W10133649_mjh,qsauce6m63,"Mediated JOLs",1,94,2024-04-15T22:00:32+00:00,3.2430059909821,1,versionA_stim.csv,ReadVersion.csv,Read,Read1,STRETCH,CLOTH,Study1,U,37,24,Test,User,-,,Recall,Recall1,3079,cloth,100,2302,2849,1,1,,1
W10133649_mjh,qsauce6m63,"Mediated JOLs",1,95,2024-04-15T22:00:33+00:00,1.1390340328217,1,versionA_stim.csv,ReadVersion.csv,Read,Read1,GIVE,STEAK,Study1,U,38,45,Test,User,-,,Recall,Recall1,1012,,0,-1,-1,0,0,,1
W10133649_mjh,qsauce6m63,"Mediated JOLs",1,96,2024-04-15T22:00:34+00:00,0.81791591644287,1,versionA_stim.csv,ReadVersion.csv,Read,Read1,NAP,SLEEP,Study1,F,29,48,Test,User,-,,Recall,Recall1,643,,0,-1,-1,0,0,,1
W10133649_mjh,qsauce6m63,"Mediated JOLs",1,97,2024-04-15T22:00:36+00:00,2.0648550987244,1,versionA_stim.csv,ReadVersion.csv,Read,Read1,LITTER,TRASH,Study1,F,21,41,Test,User,-,,Recall,Recall1,1887,trash,100,999,1669,1,1,,1
W10133649_mjh,qsauce6m63,"Mediated JOLs",1,98,2024-04-15T22:00:37+00:00,1.4923560619354,1,versionA_stim.csv,ReadVersion.csv,Read,Read1,LISTEN,FICTION,Study1,U,44,38,Test,User,-,,Recall,Recall1,1053,,0,-1,-1,0,0,,1
W10133649_mjh,qsauce6m63,"Mediated JOLs",1,99,2024-04-15T22:00:39+00:00,1.1741199493408,1,versionA_stim.csv,ReadVersion.csv,Read,Read1,BIRTHDAY,APPLE,Study1,M,9,32,Test,User,-,,Recall,Recall1,731,,0,-1,-1,0,0,,1
W10133649_mjh,qsauce6m63,"Mediated JOLs",1,100,2024-04-15T22:00:42+00:00,3.522264957428,1,versionA_stim.csv,ReadVersion.csv,Read,Read1,TOOTH,COMB,Study1,M,19,33,Test,User,-,,Recall,Recall1,3306,comb,100,2576,3078,1,1,,1
W10133649_mjh,qsauce6m63,"Mediated JOLs",1,101,2024-04-15T22:00:46+00:00,3.4812040328979,1,versionA_stim.csv,ReadVersion.csv,Read,Read1,TREE,PANCAKES,Study1,M,11,11,Test,User,-,,Recall,Recall1,2727,green,15.384615384615,1448,2388,0,0,,1
W10133649_mjh,qsauce6m63,"Mediated JOLs",1,102,2024-04-15T22:00:48+00:00,1.9110391139984,1,versionA_stim.csv,ReadVersion.csv,Read,Read1,FUZZY,BANG,Study1,U,50,14,Test,User,-,,Recall,Recall1,1155,,0,-1,-1,0,0,,1
W10133649_mjh,qsauce6m63,"Mediated JOLs",1,103,2024-04-15T22:00:49+00:00,1.9106669425964,1,versionA_stim.csv,ReadVersion.csv,Read,Read1,WEDDING,HAND,Study1,M,17,22,Test,User,-,,Recall,Recall1,1723,hand,100,1279,1619,1,1,,1
W10133649_mjh,qsauce6m63,"Mediated JOLs",1,104,2024-04-15T22:00:51+00:00,1.3362920284271,1,versionA_stim.csv,ReadVersion.csv,Read,Read1,VEHICLE,CHARM,Study1,U,40,43,Test,User,-,,Recall,Recall1,1191,,0,-1,-1,0,0,,1
W10133649_mjh,qsauce6m63,"Mediated JOLs",1,105,2024-04-15T22:00:56+00:00,5.1231529712677,1,versionA_stim.csv,ReadVersion.csv,Read,Read1,MIRROR,MAROON,Study1,U,36,47,Test,User,-,,Recall,Recall1,4911,maroon,100,4016,4762,1,1,,1
W10133649_mjh,qsauce6m63,"Mediated JOLs",1,106,2024-04-15T22:01:08+00:00,12.214694023132,1,versionA_stim.csv,ReadVersion.csv,Read,Read1,,,,,,0,Instruct,-,10,"You will now be presented with a new set of word pairs. Please study each pair. Remember that your memory will be tested! When finished, press Enter to move to the next pair.",Initial_Instruct,Instruct4,11520,,,-1,-1,,,,1
W10133649_mjh,qsauce6m63,"Mediated JOLs",1,107,2024-04-15T22:01:12+00:00,3.7297239303589,1,versionA_stim.csv,ReadVersion.csv,Read,Read1,,,,,,0,Instruct,User,-,"Press Enter when you are readty to begin",,Instruct11,3570,,,-1,-1,,,,1
W10133649_mjh,qsauce6m63,"Mediated JOLs",1,108,2024-04-15T22:01:14+00:00,2.082200050354,1,versionA_stim.csv,ReadVersion.csv,Read,Read1,NOODLE,STRING,BUFFER4,Buffer,107,109,Study,User,-,,Study/JOL,BUFFER2,1623,,,-1,-1,,,,1
W10133649_mjh,qsauce6m63,"Mediated JOLs",1,109,2024-04-15T22:01:15+00:00,1.5458340644836,1,versionA_stim.csv,ReadVersion.csv,Read,Read1,DAYS,WEEKS,BUFFER3,Buffer,56,58,Study,User,-,,Study/JOL,BUFFER2,911,,,-1,-1,,,,1
W10133649_mjh,qsauce6m63,"Mediated JOLs",1,110,2024-04-15T22:01:16+00:00,0.90222692489624,1,versionA_stim.csv,ReadVersion.csv,Read,Read1,SHERRIF,POLICE,BUFFER2,Buffer,52,55,Study,User,-,,Study/JOL,BUFFER2,724,,,-1,-1,,,,1
W10133649_mjh,qsauce6m63,"Mediated JOLs",1,111,2024-04-15T22:01:17+00:00,1.1226768493652,1,versionA_stim.csv,ReadVersion.csv,Read,Read1,OCTOBER,SPOOKY,BUFFER3,Buffer,60,60,Study,User,-,,Study/JOL,BUFFER2,944,,,-1,-1,,,,1
W10133649_mjh,qsauce6m63,"Mediated JOLs",1,112,2024-04-15T22:01:19+00:00,1.3758950233459,1,versionA_stim.csv,ReadVersion.csv,Read,Read1,THING,STUFF,BUFFER2,Buffer,55,56,Study,User,-,,Study/JOL,BUFFER2,1195,,,-1,-1,,,,1
W10133649_mjh,qsauce6m63,"Mediated JOLs",1,113,2024-04-15T22:01:20+00:00,1.354129076004,1,versionA_stim.csv,ReadVersion.csv,Read,Read1,PUSH,CLUTTER,Study2,U,96,99,Study,User,-,,Study/JOL,"Study Phase2",1186,,,-1,-1,,,,1
W10133649_mjh,qsauce6m63,"Mediated JOLs",1,114,2024-04-15T22:01:22+00:00,1.5144810676575,1,versionA_stim.csv,ReadVersion.csv,Read,Read1,STRONG,ACCIDENT,Study2,U,94,92,Study,User,-,,Study/JOL,"Study Phase2",1340,,,-1,-1,,,,1
W10133649_mjh,qsauce6m63,"Mediated JOLs",1,115,2024-04-15T22:01:23+00:00,1.1324639320374,1,versionA_stim.csv,ReadVersion.csv,Read,Read1,DOCUMENT,PAPER,Study2,F,82,62,Study,User,-,,Study/JOL,"Study Phase2",962,,,-1,-1,,,,1
W10133649_mjh,qsauce6m63,"Mediated JOLs",1,116,2024-04-15T22:01:24+00:00,1.3756630420685,1,versionA_stim.csv,ReadVersion.csv,Read,Read1,SOAP,THIRST,Study2,M,67,86,Study,User,-,,Study/JOL,"Study Phase2",1221,,,-1,-1,,,,1
W10133649_mjh,qsauce6m63,"Mediated JOLs",1,117,2024-04-15T22:01:26+00:00,1.8651630878448,1,versionA_stim.csv,ReadVersion.csv,Read,Read1,ATTIRE,CLOTHES,Study2,F,79,84,Study,User,-,,Study/JOL,"Study Phase2",1144,,,-1,-1,,,,1
W10133649_mjh,qsauce6m63,"Mediated JOLs",1,118,2024-04-15T22:01:28+00:00,1.4154717922211,1,versionA_stim.csv,ReadVersion.csv,Read,Read1,OVEN,WEAVE,Study2,M,71,77,Study,User,-,,Study/JOL,"Study Phase2",1262,,,-1,-1,,,,1
W10133649_mjh,qsauce6m63,"Mediated JOLs",1,119,2024-04-15T22:01:29+00:00,1.4119160175323,1,versionA_stim.csv,ReadVersion.csv,Read,Read1,FEUD,FIGHT,Study2,F,86,101,Study,User,-,,Study/JOL,"Study Phase2",1232,,,-1,-1,,,,1
W10133649_mjh,qsauce6m63,"Mediated JOLs",1,120,2024-04-15T22:01:31+00:00,1.7964479923248,1,versionA_stim.csv,ReadVersion.csv,Read,Read1,DEATH,BUSINESS,Study2,U,99,81,Study,User,-,,Study/JOL,"Study Phase2",1638,,,-1,-1,,,,1
W10133649_mjh,qsauce6m63,"Mediated JOLs",1,121,2024-04-15T22:01:32+00:00,0.87535309791565,1,versionA_stim.csv,ReadVersion.csv,Read,Read1,HERD,COW,Study2,F,88,83,Study,User,-,,Study/JOL,"Study Phase2",707,,,-1,-1,,,,1
W10133649_mjh,qsauce6m63,"Mediated JOLs",1,122,2024-04-15T22:01:33+00:00,1.8388450145721,1,versionA_stim.csv,ReadVersion.csv,Read,Read1,GRILL,LEG,Study2,M,72,100,Study,User,-,,Study/JOL,"Study Phase2",1667,,,-1,-1,,,,1
W10133649_mjh,qsauce6m63,"Mediated JOLs",1,123,2024-04-15T22:01:35+00:00,1.6912698745728,1,versionA_stim.csv,ReadVersion.csv,Read,Read1,REALITY,WATER,Study2,M,64,93,Study,User,-,,Study/JOL,"Study Phase2",1511,,,-1,-1,,,,1
W10133649_mjh,qsauce6m63,"Mediated JOLs",1,124,2024-04-15T22:01:37+00:00,1.7592911720276,1,versionA_stim.csv,ReadVersion.csv,Read,Read1,BRIDGE,WATER,Study2,F,90,94,Study,User,-,,Study/JOL,"Study Phase2",1580,,,-1,-1,,,,1
W10133649_mjh,qsauce6m63,"Mediated JOLs",1,125,2024-04-15T22:01:38+00:00,1.4802169799805,1,versionA_stim.csv,ReadVersion.csv,Read,Read1,CASH,STUDY,Study2,U,105,103,Study,User,-,,Study/JOL,"Study Phase2",1294,,,-1,-1,,,,1
W10133649_mjh,qsauce6m63,"Mediated JOLs",1,126,2024-04-15T22:01:41+00:00,2.7443599700928,1,versionA_stim.csv,ReadVersion.csv,Read,Read1,BENCH,HORN,Study2,U,98,74,Study,User,-,,Study/JOL,"Study Phase2",2581,,,-1,-1,,,,1
W10133649_mjh,qsauce6m63,"Mediated JOLs",1,127,2024-04-15T22:01:43+00:00,1.8962390422821,1,versionA_stim.csv,ReadVersion.csv,Read,Read1,CHISEL,HAMMER,Study2,F,78,63,Study,User,-,,Study/JOL,"Study Phase2",1722,,,-1,-1,,,,1
W10133649_mjh,qsauce6m63,"Mediated JOLs",1,128,2024-04-15T22:01:44+00:00,1.429713010788,1,versionA_stim.csv,ReadVersion.csv,Read,Read1,VALLEY,TOP,Study2,M,73,66,Study,User,-,,Study/JOL,"Study Phase2",1266,,,-1,-1,,,,1
W10133649_mjh,qsauce6m63,"Mediated JOLs",1,129,2024-04-15T22:01:46+00:00,1.6119568347931,1,versionA_stim.csv,ReadVersion.csv,Read,Read1,BLAZE,FIRE,Study2,F,81,105,Study,User,-,,Study/JOL,"Study Phase2",1447,,,-1,-1,,,,1
W10133649_mjh,qsauce6m63,"Mediated JOLs",1,130,2024-04-15T22:01:48+00:00,1.8557300567627,1,versionA_stim.csv,ReadVersion.csv,Read,Read1,DIETARY,SACK,Study2,U,97,102,Study,User,-,,Study/JOL,"Study Phase2",1688,,,-1,-1,,,,1
W10133649_mjh,qsauce6m63,"Mediated JOLs",1,131,2024-04-15T22:01:50+00:00,1.6670091152191,1,versionA_stim.csv,ReadVersion.csv,Read,Read1,ART,WOLF,Study2,U,93,104,Study,User,-,,Study/JOL,"Study Phase2",1499,,,-1,-1,,,,1
W10133649_mjh,qsauce6m63,"Mediated JOLs",1,132,2024-04-15T22:01:51+00:00,1.4375100135803,1,versionA_stim.csv,ReadVersion.csv,Read,Read1,RAZOR,ARM,Study2,M,75,70,Study,User,-,,Study/JOL,"Study Phase2",1262,,,-1,-1,,,,1
W10133649_mjh,qsauce6m63,"Mediated JOLs",1,133,2024-04-15T22:01:53+00:00,1.6086668968201,1,versionA_stim.csv,ReadVersion.csv,Read,Read1,MIRROR,CHILDREN,Study2,U,104,65,Study,User,-,,Study/JOL,"Study Phase2",1429,,,-1,-1,,,,1
W10133649_mjh,qsauce6m63,"Mediated JOLs",1,134,2024-04-15T22:01:54+00:00,1.8301439285278,1,versionA_stim.csv,ReadVersion.csv,Read,Read1,WASP,BUG,Study2,F,89,71,Study,User,-,,Study/JOL,"Study Phase2",1652,,,-1,-1,,,,1
W10133649_mjh,qsauce6m63,"Mediated JOLs",1,135,2024-04-15T22:01:56+00:00,1.157219171524,1,versionA_stim.csv,ReadVersion.csv,Read,Read1,HEAVY,BIRD,Study2,M,68,73,Study,User,-,,Study/JOL,"Study Phase2",974,,,-1,-1,,,,1
W10133649_mjh,qsauce6m63,"Mediated JOLs",1,136,2024-04-15T22:01:57+00:00,1.659451007843,1,versionA_stim.csv,ReadVersion.csv,Read,Read1,CHOP,CUT,Study2,F,77,68,Study,User,-,,Study/JOL,"Study Phase2",1521,,,-1,-1,,,,1
W10133649_mjh,qsauce6m63,"Mediated JOLs",1,137,2024-04-15T22:01:59+00:00,1.5441658496857,1,versionA_stim.csv,ReadVersion.csv,Read,Read1,SCHOOL,SIGN,Study2,M,62,64,Study,User,-,,Study/JOL,"Study Phase2",1376,,,-1,-1,,,,1
W10133649_mjh,qsauce6m63,"Mediated JOLs",1,138,2024-04-15T22:02:00+00:00,1.6682760715485,1,versionA_stim.csv,ReadVersion.csv,Read,Read1,BOTH,OUNCE,Study2,U,102,97,Study,User,-,,Study/JOL,"Study Phase2",1497,,,-1,-1,,,,1
W10133649_mjh,qsauce6m63,"Mediated JOLs",1,139,2024-04-15T22:02:01+00:00,0.99304795265198,1,versionA_stim.csv,ReadVersion.csv,Read,Read1,CHILL,COLD,Study2,F,87,75,Study,User,-,,Study/JOL,"Study Phase2",828,,,-1,-1,,,,1
W10133649_mjh,qsauce6m63,"Mediated JOLs",1,140,2024-04-15T22:02:03+00:00,1.3561050891876,1,versionA_stim.csv,ReadVersion.csv,Read,Read1,RAKE,PLANT,Study2,M,69,88,Study,User,-,,Study/JOL,"Study Phase2",1236,,,-1,-1,,,,1
W10133649_mjh,qsauce6m63,"Mediated JOLs",1,141,2024-04-15T22:02:05+00:00,1.681144952774,1,versionA_stim.csv,ReadVersion.csv,Read,Read1,INCENSE,SMELL,Study2,F,83,76,Study,User,-,,Study/JOL,"Study Phase2",1504,,,-1,-1,,,,1
W10133649_mjh,qsauce6m63,"Mediated JOLs",1,142,2024-04-15T22:02:05+00:00,0.70119190216064,1,versionA_stim.csv,ReadVersion.csv,Read,Read1,SUMMER,WHITE,Study2,M,61,78,Study,User,-,,Study/JOL,"Study Phase2",533,,,-1,-1,,,,1
W10133649_mjh,qsauce6m63,"Mediated JOLs",1,143,2024-04-15T22:02:07+00:00,1.3851370811462,1,versionA_stim.csv,ReadVersion.csv,Read,Read1,SICK,HIDE,Study2,U,100,90,Study,User,-,,Study/JOL,"Study Phase2",1220,,,-1,-1,,,,1
W10133649_mjh,qsauce6m63,"Mediated JOLs",1,144,2024-04-15T22:02:09+00:00,2.7684979438782,1,versionA_stim.csv,ReadVersion.csv,Read,Read1,TRAP,MAN,Study2,M,70,106,Study,User,-,,Study/JOL,"Study Phase2",2601,,,-1,-1,,,,1
W10133649_mjh,qsauce6m63,"Mediated JOLs",1,145,2024-04-15T22:02:11+00:00,1.510066986084,1,versionA_stim.csv,ReadVersion.csv,Read,Read1,CHERRY,RED,Study2,F,80,80,Study,User,-,,Study/JOL,"Study Phase2",1326,,,-1,-1,,,,1
W10133649_mjh,qsauce6m63,"Mediated JOLs",1,146,2024-04-15T22:02:13+00:00,1.9636399745941,1,versionA_stim.csv,ReadVersion.csv,Read,Read1,ARTERY,BRONZE,Study2,U,103,91,Study,User,-,,Study/JOL,"Study Phase2",1790,,,-1,-1,,,,1
W10133649_mjh,qsauce6m63,"Mediated JOLs",1,147,2024-04-15T22:02:14+00:00,0.81705904006958,1,versionA_stim.csv,ReadVersion.csv,Read,Read1,LEASE,TOIL,Study2,U,101,96,Study,User,-,,Study/JOL,"Study Phase2",647,,,-1,-1,,,,1
W10133649_mjh,qsauce6m63,"Mediated JOLs",1,148,2024-04-15T22:02:15+00:00,1.0024700164795,1,versionA_stim.csv,ReadVersion.csv,Read,Read1,WINDOW,HANDLE,Study2,M,74,95,Study,User,-,,Study/JOL,"Study Phase2",837,,,-1,-1,,,,1
W10133649_mjh,qsauce6m63,"Mediated JOLs",1,149,2024-04-15T22:02:16+00:00,1.5551769733429,1,versionA_stim.csv,ReadVersion.csv,Read,Read1,KING,VASE,Study2,U,91,67,Study,User,-,,Study/JOL,"Study Phase2",1381,,,-1,-1,,,,1
W10133649_mjh,qsauce6m63,"Mediated JOLs",1,150,2024-04-15T22:02:17+00:00,0.79163098335266,1,versionA_stim.csv,ReadVersion.csv,Read,Read1,CACTUS,PLANT,Study2,F,76,72,Study,User,-,,Study/JOL,"Study Phase2",650,,,-1,-1,,,,1
W10133649_mjh,qsauce6m63,"Mediated JOLs",1,151,2024-04-15T22:02:19+00:00,1.6318850517273,1,versionA_stim.csv,ReadVersion.csv,Read,Read1,EYES,TASTE,Study2,M,65,79,Study,User,-,,Study/JOL,"Study Phase2",1463,,,-1,-1,,,,1
W10133649_mjh,qsauce6m63,"Mediated JOLs",1,152,2024-04-15T22:02:20+00:00,1.1634781360626,1,versionA_stim.csv,ReadVersion.csv,Read,Read1,SUGAR,RIDDLE,Study2,U,95,69,Study,User,-,,Study/JOL,"Study Phase2",1012,,,-1,-1,,,,1
W10133649_mjh,qsauce6m63,"Mediated JOLs",1,153,2024-04-15T22:02:21+00:00,1.1510829925537,1,versionA_stim.csv,ReadVersion.csv,Read,Read1,PANTS,DOG,Study2,M,63,98,Study,User,-,,Study/JOL,"Study Phase2",961,,,-1,-1,,,,1
W10133649_mjh,qsauce6m63,"Mediated JOLs",1,154,2024-04-15T22:02:22+00:00,1.0980448722839,1,versionA_stim.csv,ReadVersion.csv,Read,Read1,HAPPY,CAR,Study2,U,92,82,Study,User,-,,Study/JOL,"Study Phase2",939,,,-1,-1,,,,1
W10133649_mjh,qsauce6m63,"Mediated JOLs",1,155,2024-04-15T22:02:23+00:00,1.2080550193787,1,versionA_stim.csv,ReadVersion.csv,Read,Read1,NURSE,COURT,Study2,M,66,85,Study,User,-,,Study/JOL,"Study Phase2",1024,,,-1,-1,,,,1
W10133649_mjh,qsauce6m63,"Mediated JOLs",1,156,2024-04-15T22:02:24+00:00,1.0904610157013,1,versionA_stim.csv,ReadVersion.csv,Read,Read1,HORNET,STING,Study2,F,85,87,Study,User,-,,Study/JOL,"Study Phase2",897,,,-1,-1,,,,1
W10133649_mjh,qsauce6m63,"Mediated JOLs",1,157,2024-04-15T22:02:25+00:00,0.82422590255737,1,versionA_stim.csv,ReadVersion.csv,Read,Read1,LEAGUE,BASEBALL,Study2,F,84,89,Study,User,-,,Study/JOL,"Study Phase2",683,,,-1,-1,,,,1
W10133649_mjh,qsauce6m63,"Mediated JOLs",1,158,2024-04-15T22:02:28+00:00,2.411740064621,1,versionA_stim.csv,ReadVersion.csv,Read,Read1,SHRIMP,FISH,BUFFER4,Buffer,108,110,Study,User,-,,Study/JOL,BUFFER2,2254,,,-1,-1,,,,1
W10133649_mjh,qsauce6m63,"Mediated JOLs",1,159,2024-04-15T22:02:28+00:00,0.73504400253296,1,versionA_stim.csv,ReadVersion.csv,Read,Read1,MALT,CHOCOLATE,BUFFER2,Buffer,53,54,Study,User,-,,Study/JOL,BUFFER2,561,,,-1,-1,,,,1
W10133649_mjh,qsauce6m63,"Mediated JOLs",1,160,2024-04-15T22:02:33+00:00,4.770987033844,1,versionA_stim.csv,ReadVersion.csv,Read,Read1,GEESE,GOOSE,BUFFER2,Buffer,51,52,Study,User,-,,Study/JOL,BUFFER2,4634,,,-1,-1,,,,1
W10133649_mjh,qsauce6m63,"Mediated JOLs",1,161,2024-04-15T22:02:34+00:00,1.3424499034882,1,versionA_stim.csv,ReadVersion.csv,Read,Read1,MOON,SPACE,BUFFER2,Buffer,54,53,Study,User,-,,Study/JOL,BUFFER2,1169,,,-1,-1,,,,1
W10133649_mjh,qsauce6m63,"Mediated JOLs",1,162,2024-04-15T22:02:40+00:00,5.1943871974945,1,versionA_stim.csv,ReadVersion.csv,Read,Read1,TOOL,SHED,BUFFER3,Buffer,58,59,Study,User,-,,Study/JOL,BUFFER2,5050,,,-1,-1,,,,1
W10133649_mjh,qsauce6m63,"Mediated JOLs",1,163,2024-04-15T22:02:42+00:00,2.3059768676758,1,versionA_stim.csv,ReadVersion.csv,Read,Read1,,,,,,0,Instruct,User,-,"You have completed this section. Please press Enter.",Filler_Instruction,Instruct2,2116,,,-1,-1,,,,1
W10133649_mjh,qsauce6m63,"Mediated JOLs",1,164,2024-04-15T22:04:42+00:00,120.30431699753,1,versionA_stim.csv,ReadVersion.csv,Read,Read1,,,,,,0,FreeRecall,120,120,"Please list the 50 US states in alphabetical order. The task will automatically advance to the next screen after two minutes.",,Filler1,120002,"north dakota oklahoma ohio pennslyvania rhode island south carolina south dakota utah vermont virgina wisconsin west virgina wyoming ",0,7888,107271,0,0,,1
W10133649_mjh,qsauce6m63,"Mediated JOLs",1,165,2024-04-15T22:05:29+00:00,46.745083093643,1,versionA_stim.csv,ReadVersion.csv,Read,Read1,,,,,,0,Instruct,-,10,"You will now be presented with the first word from each of the previously studied item pairs. Please type the missing word. If you do not know the word, you may guess or press Enter to skip forward to the next pair.",,Instruct3,46540,,,-1,-1,,,,1
W10133649_mjh,qsauce6m63,"Mediated JOLs",1,166,2024-04-15T22:05:31+00:00,1.5342578887939,1,versionA_stim.csv,ReadVersion.csv,Read,Read1,ART,WOLF,Study2,U,93,104,Test,User,-,,Recall,Recall2,1121,,0,-1,-1,0,0,,1
W10133649_mjh,qsauce6m63,"Mediated JOLs",1,167,2024-04-15T22:05:33+00:00,2.4562449455261,1,versionA_stim.csv,ReadVersion.csv,Read,Read1,CASH,STUDY,Study2,U,105,103,Test,User,-,,Recall,Recall2,2259,,0,-1,-1,0,0,,1
W10133649_mjh,qsauce6m63,"Mediated JOLs",1,168,2024-04-15T22:05:34+00:00,1.2476360797882,1,versionA_stim.csv,ReadVersion.csv,Read,Read1,PUSH,CLUTTER,Study2,U,96,99,Test,User,-,,Recall,Recall2,1063,,0,-1,-1,0,0,,1
W10133649_mjh,qsauce6m63,"Mediated JOLs",1,169,2024-04-15T22:05:35+00:00,0.88227391242981,1,versionA_stim.csv,ReadVersion.csv,Read,Read1,TRAP,MAN,Study2,M,70,106,Test,User,-,,Recall,Recall2,711,,0,-1,-1,0,0,,1
W10133649_mjh,qsauce6m63,"Mediated JOLs",1,170,2024-04-15T22:05:36+00:00,1.0856292247772,1,versionA_stim.csv,ReadVersion.csv,Read,Read1,DEATH,BUSINESS,Study2,U,99,81,Test,User,-,,Recall,Recall2,905,,0,-1,-1,0,0,,1
W10133649_mjh,qsauce6m63,"Mediated JOLs",1,171,2024-04-15T22:05:38+00:00,1.8025479316711,1,versionA_stim.csv,ReadVersion.csv,Read,Read1,FEUD,FIGHT,Study2,F,86,101,Test,User,-,,Recall,Recall2,1614,fight,100,1083,1508,1,1,,1
W10133649_mjh,qsauce6m63,"Mediated JOLs",1,172,2024-04-15T22:05:41+00:00,2.8119869232178,1,versionA_stim.csv,ReadVersion.csv,Read,Read1,HEAVY,BIRD,Study2,M,68,73,Test,User,-,,Recall,Recall2,2635,bird,100,1430,2509,1,1,,1
W10133649_mjh,qsauce6m63,"Mediated JOLs",1,173,2024-04-15T22:05:42+00:00,0.87526202201843,1,versionA_stim.csv,ReadVersion.csv,Read,Read1,HERD,COW,Study2,F,88,83,Test,User,-,,Recall,Recall2,693,,0,-1,-1,0,0,,1
W10133649_mjh,qsauce6m63,"Mediated JOLs",1,174,2024-04-15T22:05:44+00:00,2.6894960403442,1,versionA_stim.csv,ReadVersion.csv,Read,Read1,LEASE,TOIL,Study2,U,101,96,Test,User,-,,Recall,Recall2,2507,,0,-1,-1,0,0,,1
W10133649_mjh,qsauce6m63,"Mediated JOLs",1,175,2024-04-15T22:05:45+00:00,0.79596400260925,1,versionA_stim.csv,ReadVersion.csv,Read,Read1,VALLEY,TOP,Study2,M,73,66,Test,User,-,,Recall,Recall2,631,,0,-1,-1,0,0,,1
W10133649_mjh,qsauce6m63,"Mediated JOLs",1,176,2024-04-15T22:05:46+00:00,1.0099859237671,1,versionA_stim.csv,ReadVersion.csv,Read,Read1,WASP,BUG,Study2,F,89,71,Test,User,-,,Recall,Recall2,816,,0,-1,-1,0,0,,1
W10133649_mjh,qsauce6m63,"Mediated JOLs",1,177,2024-04-15T22:05:49+00:00,3.1644489765167,1,versionA_stim.csv,ReadVersion.csv,Read,Read1,CHISEL,HAMMER,Study2,F,78,63,Test,User,-,,Recall,Recall2,3021,hammer,100,1578,2823,1,1,,1
W10133649_mjh,qsauce6m63,"Mediated JOLs",1,178,2024-04-15T22:05:50+00:00,1.0787870883942,1,versionA_stim.csv,ReadVersion.csv,Read,Read1,SUMMER,WHITE,Study2,M,61,78,Test,User,-,,Recall,Recall2,896,,0,-1,-1,0,0,,1
W10133649_mjh,qsauce6m63,"Mediated JOLs",1,179,2024-04-15T22:05:52+00:00,1.3615820407867,1,versionA_stim.csv,ReadVersion.csv,Read,Read1,BLAZE,FIRE,Study2,F,81,105,Test,User,-,,Recall,Recall2,1188,,0,-1,-1,0,0,,1
W10133649_mjh,qsauce6m63,"Mediated JOLs",1,180,2024-04-15T22:05:54+00:00,2.0302150249481,1,versionA_stim.csv,ReadVersion.csv,Read,Read1,DOCUMENT,PAPER,Study2,F,82,62,Test,User,-,,Recall,Recall2,1831,papers,90.909090909091,964,1693,0,1,,1
W10133649_mjh,qsauce6m63,"Mediated JOLs",1,181,2024-04-15T22:05:55+00:00,1.1403849124908,1,versionA_stim.csv,ReadVersion.csv,Read,Read1,INCENSE,SMELL,Study2,F,83,76,Test,User,-,,Recall,Recall2,984,,0,-1,-1,0,0,,1
W10133649_mjh,qsauce6m63,"Mediated JOLs",1,182,2024-04-15T22:05:58+00:00,2.9863600730896,1,versionA_stim.csv,ReadVersion.csv,Read,Read1,REALITY,WATER,Study2,M,64,93,Test,User,-,,Recall,Recall2,2748,c,0,2365,2365,0,0,,1
W10133649_mjh,qsauce6m63,"Mediated JOLs",1,183,2024-04-15T22:06:01+00:00,2.998034954071,1,versionA_stim.csv,ReadVersion.csv,Read,Read1,HAPPY,CAR,Study2,U,92,82,Test,User,-,,Recall,Recall2,2827,,0,-1,-1,0,0,,1
W10133649_mjh,qsauce6m63,"Mediated JOLs",1,184,2024-04-15T22:06:02+00:00,1.2035489082336,1,versionA_stim.csv,ReadVersion.csv,Read,Read1,BENCH,HORN,Study2,U,98,74,Test,User,-,,Recall,Recall2,988,,0,-1,-1,0,0,,1
W10133649_mjh,qsauce6m63,"Mediated JOLs",1,185,2024-04-15T22:06:03+00:00,1.297868013382,1,versionA_stim.csv,ReadVersion.csv,Read,Read1,KING,VASE,Study2,U,91,67,Test,User,-,,Recall,Recall2,1118,,0,-1,-1,0,0,,1
W10133649_mjh,qsauce6m63,"Mediated JOLs",1,186,2024-04-15T22:06:05+00:00,2.0316269397736,1,versionA_stim.csv,ReadVersion.csv,Read,Read1,CHOP,CUT,Study2,F,77,68,Test,User,-,,Recall,Recall2,1845,,0,-1,-1,0,0,,1
W10133649_mjh,qsauce6m63,"Mediated JOLs",1,187,2024-04-15T22:06:09+00:00,3.0420100688934,1,versionA_stim.csv,ReadVersion.csv,Read,Read1,RAKE,PLANT,Study2,M,69,88,Test,User,-,,Recall,Recall2,2870,plant,100,2060,2569,1,1,,1
W10133649_mjh,qsauce6m63,"Mediated JOLs",1,188,2024-04-15T22:06:11+00:00,2.6208231449127,1,versionA_stim.csv,ReadVersion.csv,Read,Read1,CACTUS,PLANT,Study2,F,76,72,Test,User,-,,Recall,Recall2,2432,plant,100,1262,2324,1,1,,1
W10133649_mjh,qsauce6m63,"Mediated JOLs",1,189,2024-04-15T22:06:13+00:00,1.7286319732666,1,versionA_stim.csv,ReadVersion.csv,Read,Read1,NURSE,COURT,Study2,M,66,85,Test,User,-,,Recall,Recall2,1546,,0,-1,-1,0,0,,1
W10133649_mjh,qsauce6m63,"Mediated JOLs",1,190,2024-04-15T22:06:14+00:00,1.1864049434662,1,versionA_stim.csv,ReadVersion.csv,Read,Read1,CHERRY,RED,Study2,F,80,80,Test,User,-,,Recall,Recall2,1005,,0,-1,-1,0,0,,1
W10133649_mjh,qsauce6m63,"Mediated JOLs",1,191,2024-04-15T22:06:16+00:00,1.5515129566193,1,versionA_stim.csv,ReadVersion.csv,Read,Read1,SCHOOL,SIGN,Study2,M,62,64,Test,User,-,,Recall,Recall2,1379,,0,-1,-1,0,0,,1
W10133649_mjh,qsauce6m63,"Mediated JOLs",1,192,2024-04-15T22:06:18+00:00,2.6487390995026,1,versionA_stim.csv,ReadVersion.csv,Read,Read1,HORNET,STING,Study2,F,85,87,Test,User,-,,Recall,Recall2,2481,wasp,22.222222222222,1313,2301,0,0,,1
W10133649_mjh,qsauce6m63,"Mediated JOLs",1,193,2024-04-15T22:06:21+00:00,2.9293358325958,1,versionA_stim.csv,ReadVersion.csv,Read,Read1,LEAGUE,BASEBALL,Study2,F,84,89,Test,User,-,,Recall,Recall2,2735,baseball,100,1140,2585,1,1,,1
W10133649_mjh,qsauce6m63,"Mediated JOLs",1,194,2024-04-15T22:06:23+00:00,1.5703630447388,1,versionA_stim.csv,ReadVersion.csv,Read,Read1,ARTERY,BRONZE,Study2,U,103,91,Test,User,-,,Recall,Recall2,1345,,0,-1,-1,0,0,,1
W10133649_mjh,qsauce6m63,"Mediated JOLs",1,195,2024-04-15T22:06:25+00:00,1.7686409950256,1,versionA_stim.csv,ReadVersion.csv,Read,Read1,EYES,TASTE,Study2,M,65,79,Test,User,-,,Recall,Recall2,1533,,0,-1,-1,0,0,,1
W10133649_mjh,qsauce6m63,"Mediated JOLs",1,196,2024-04-15T22:06:25+00:00,0.96257305145264,1,versionA_stim.csv,ReadVersion.csv,Read,Read1,RAZOR,ARM,Study2,M,75,70,Test,User,-,,Recall,Recall2,697,,0,-1,-1,0,0,,1
W10133649_mjh,qsauce6m63,"Mediated JOLs",1,197,2024-04-15T22:06:29+00:00,3.5471529960632,1,versionA_stim.csv,ReadVersion.csv,Read,Read1,STRONG,ACCIDENT,Study2,U,94,92,Test,User,-,,Recall,Recall2,3365,crash,15.384615384615,1825,2574,0,0,,1
W10133649_mjh,qsauce6m63,"Mediated JOLs",1,198,2024-04-15T22:06:33+00:00,3.7852079868317,1,versionA_stim.csv,ReadVersion.csv,Read,Read1,WINDOW,HANDLE,Study2,M,74,95,Test,User,-,,Recall,Recall2,3609,,0,-1,-1,0,0,,1
W10133649_mjh,qsauce6m63,"Mediated JOLs",1,199,2024-04-15T22:06:34+00:00,0.84196209907532,1,versionA_stim.csv,ReadVersion.csv,Read,Read1,ATTIRE,CLOTHES,Study2,F,79,84,Test,User,-,,Recall,Recall2,659,,0,-1,-1,0,0,,1
W10133649_mjh,qsauce6m63,"Mediated JOLs",1,200,2024-04-15T22:06:36+00:00,2.2247049808502,1,versionA_stim.csv,ReadVersion.csv,Read,Read1,MIRROR,CHILDREN,Study2,U,104,65,Test,User,-,,Recall,Recall2,2042,child,76.923076923077,1406,1923,0,1,,1
W10133649_mjh,qsauce6m63,"Mediated JOLs",1,201,2024-04-15T22:06:37+00:00,1.3335390090942,1,versionA_stim.csv,ReadVersion.csv,Read,Read1,SICK,HIDE,Study2,U,100,90,Test,User,-,,Recall,Recall2,1152,,0,-1,-1,0,0,,1
W10133649_mjh,qsauce6m63,"Mediated JOLs",1,202,2024-04-15T22:06:39+00:00,2.1642420291901,1,versionA_stim.csv,ReadVersion.csv,Read,Read1,CHILL,COLD,Study2,F,87,75,Test,User,-,,Recall,Recall2,1978,cold,100,1046,1843,1,1,,1
W10133649_mjh,qsauce6m63,"Mediated JOLs",1,203,2024-04-15T22:06:40+00:00,0.88835978507996,1,versionA_stim.csv,ReadVersion.csv,Read,Read1,GRILL,LEG,Study2,M,72,100,Test,User,-,,Recall,Recall2,710,,0,-1,-1,0,0,,1
W10133649_mjh,qsauce6m63,"Mediated JOLs",1,204,2024-04-15T22:06:42+00:00,1.3883121013641,1,versionA_stim.csv,ReadVersion.csv,Read,Read1,DIETARY,SACK,Study2,U,97,102,Test,User,-,,Recall,Recall2,1201,,0,-1,-1,0,0,,1
W10133649_mjh,qsauce6m63,"Mediated JOLs",1,205,2024-04-15T22:06:43+00:00,0.85454297065735,1,versionA_stim.csv,ReadVersion.csv,Read,Read1,SUGAR,RIDDLE,Study2,U,95,69,Test,User,-,,Recall,Recall2,671,,0,-1,-1,0,0,,1
W10133649_mjh,qsauce6m63,"Mediated JOLs",1,206,2024-04-15T22:06:43+00:00,0.84120297431946,1,versionA_stim.csv,ReadVersion.csv,Read,Read1,SOAP,THIRST,Study2,M,67,86,Test,User,-,,Recall,Recall2,639,,0,-1,-1,0,0,,1
W10133649_mjh,qsauce6m63,"Mediated JOLs",1,207,2024-04-15T22:06:47+00:00,3.9112060070038,1,versionA_stim.csv,ReadVersion.csv,Read,Read1,OVEN,WEAVE,Study2,M,71,77,Test,User,-,,Recall,Recall2,3719,fill,0,2862,3512,0,0,,1
W10133649_mjh,qsauce6m63,"Mediated JOLs",1,208,2024-04-15T22:06:48+00:00,0.88122701644897,1,versionA_stim.csv,ReadVersion.csv,Read,Read1,BRIDGE,WATER,Study2,F,90,94,Test,User,-,,Recall,Recall2,730,,0,-1,-1,0,0,,1
W10133649_mjh,qsauce6m63,"Mediated JOLs",1,209,2024-04-15T22:06:51+00:00,2.674232006073,1,versionA_stim.csv,ReadVersion.csv,Read,Read1,BOTH,OUNCE,Study2,U,102,97,Test,User,-,,Recall,Recall2,2495,,0,-1,-1,0,0,,1
W10133649_mjh,qsauce6m63,"Mediated JOLs",1,210,2024-04-15T22:06:52+00:00,0.83234310150146,1,versionA_stim.csv,ReadVersion.csv,Read,Read1,PANTS,DOG,Study2,M,63,98,Test,User,-,,Recall,Recall2,664,,0,-1,-1,0,0,,1
W10133649_mjh,qsauce6m63,"Mediated JOLs",1,211,2024-04-15T22:06:52+00:00,0.77426981925964,1,versionA_stim.csv,ReadVersion.csv,Read,Read1,,,,,,0,Instruct,User,-,"You have completed this section. Please press Enter.",,Instruct7,605,,,-1,-1,,,,1
W10133649_mjh,qsauce6m63,"Mediated JOLs",1,212,2024-04-15T22:06:54+00:00,1.1656680107117,1,versionA_stim.csv,ReadVersion.csv,Read,Read1,,,,,,0,Instruct,User,-,"The following screen will ask you a few questions abour your experience today. You must complete these questions to receive credit.",,Instruct8,976,,,-1,-1,,,,1
