Username,ID,ExperimentName,Session,Trial,Date,TimeDif,"Condition Number","Stimuli File","Order File","Condition Description","Condition Notes",Stimuli*Cue,Stimuli*Answer,Stimuli*Shuffle,"Stimuli*Stimuli Notes",Stimuli*Value,Procedure*Item,"Procedure*Trial Type","Procedure*Max Time","Procedure*Min Time",Procedure*Text,"Procedure*Procedure Notes",Procedure*Shuffle,Response*RT,Response*Response,Response*Accuracy,Response*RTfirst,Response*RTlast,Response*strictAcc,Response*lenientAcc,Response*focus,Response*Focus
w467523BR,gs0bocygg9,"Mediated JOLs",1,1,2024-04-17T16:21:13+00:00,5.8486769199371,3,versionB_stim.csv,ReadVersion.csv,Read,Read2,,,,,,0,Instruct,-,5,"In this section, you will be presented with a series of word pairs. Please study each word pair! Your memory will be tested!",Initial_Instruct,Instruct1,5708,,,-1,-1,,,,1
w467523BR,gs0bocygg9,"Mediated JOLs",1,2,2024-04-17T16:21:15+00:00,1.7508008480072,3,versionB_stim.csv,ReadVersion.csv,Read,Read2,,,,,,0,Instruct,User,-,"You will now begin. Press Enter when you are ready to begin.",,Instruct16,1631,,,-1,-1,,,,1
w467523BR,gs0bocygg9,"Mediated JOLs",1,3,2024-04-17T16:21:42+00:00,27.190680027008,3,versionB_stim.csv,ReadVersion.csv,Read,Read2,SPRING,MARCH,BUFFER3,Buffer,4,4,Study,User,-,,Study/JOL,BUFFER,26919,,,-1,-1,,,,0.415
w467523BR,gs0bocygg9,"Mediated JOLs",1,4,2024-04-17T16:21:45+00:00,3.3007071018219,3,versionB_stim.csv,ReadVersion.csv,Read,Read2,OCTOBER,SPOOKY,BUFFER3,Buffer,5,5,Study,User,-,,Study/JOL,BUFFER,3192,,,-1,-1,,,,1
w467523BR,gs0bocygg9,"Mediated JOLs",1,5,2024-04-17T16:21:46+00:00,0.8269190788269,3,versionB_stim.csv,ReadVersion.csv,Read,Read2,MONTH,YEAR,BUFFER3,Buffer,2,2,Study,User,-,,Study/JOL,BUFFER,727,,,-1,-1,,,,1
w467523BR,gs0bocygg9,"Mediated JOLs",1,6,2024-04-17T16:21:47+00:00,1.2898848056793,3,versionB_stim.csv,ReadVersion.csv,Read,Read2,TOOL,SHED,BUFFER3,Buffer,3,3,Study,User,-,,Study/JOL,BUFFER,1194,,,-1,-1,,,,1
w467523BR,gs0bocygg9,"Mediated JOLs",1,7,2024-04-17T16:21:48+00:00,0.81054615974426,3,versionB_stim.csv,ReadVersion.csv,Read,Read2,DAYS,WEEKS,BUFFER3,Buffer,1,6,Study,User,-,,Study/JOL,BUFFER,704,,,-1,-1,,,,1
w467523BR,gs0bocygg9,"Mediated JOLs",1,8,2024-04-17T16:21:49+00:00,0.92208695411682,3,versionB_stim.csv,ReadVersion.csv,Read,Read2,HEAVY,BIRD,Study2,M,13,20,Study,User,-,,Study/JOL,"Study Phase",833,,,-1,-1,,,,1
w467523BR,gs0bocygg9,"Mediated JOLs",1,9,2024-04-17T16:21:50+00:00,0.96094107627869,3,versionB_stim.csv,ReadVersion.csv,Read,Read2,MIRROR,CHILDREN,Study2,U,49,29,Study,User,-,,Study/JOL,"Study Phase",858,,,-1,-1,,,,1
w467523BR,gs0bocygg9,"Mediated JOLs",1,10,2024-04-17T16:21:52+00:00,2.2476680278778,3,versionB_stim.csv,ReadVersion.csv,Read,Read2,CHOP,CUT,Study2,F,22,51,Study,User,-,,Study/JOL,"Study Phase",2150,,,-1,-1,,,,1
w467523BR,gs0bocygg9,"Mediated JOLs",1,11,2024-04-17T16:21:54+00:00,1.2859709262848,3,versionB_stim.csv,ReadVersion.csv,Read,Read2,CHILL,COLD,Study2,F,32,10,Study,User,-,,Study/JOL,"Study Phase",1187,,,-1,-1,,,,1
w467523BR,gs0bocygg9,"Mediated JOLs",1,12,2024-04-17T16:21:55+00:00,1.1715528964996,3,versionB_stim.csv,ReadVersion.csv,Read,Read2,DIETARY,SACK,Study2,U,42,40,Study,User,-,,Study/JOL,"Study Phase",1074,,,-1,-1,,,,1
w467523BR,gs0bocygg9,"Mediated JOLs",1,13,2024-04-17T16:21:56+00:00,1.219719171524,3,versionB_stim.csv,ReadVersion.csv,Read,Read2,GRILL,LEG,Study2,M,17,32,Study,User,-,,Study/JOL,"Study Phase",1121,,,-1,-1,,,,1
w467523BR,gs0bocygg9,"Mediated JOLs",1,14,2024-04-17T16:21:57+00:00,1.03067278862,3,versionB_stim.csv,ReadVersion.csv,Read,Read2,WASP,BUG,Study2,F,34,26,Study,User,-,,Study/JOL,"Study Phase",936,,,-1,-1,,,,1
w467523BR,gs0bocygg9,"Mediated JOLs",1,15,2024-04-17T16:21:58+00:00,1.1662352085114,3,versionB_stim.csv,ReadVersion.csv,Read,Read2,KING,VASE,Study2,U,36,47,Study,User,-,,Study/JOL,"Study Phase",1065,,,-1,-1,,,,1
w467523BR,gs0bocygg9,"Mediated JOLs",1,16,2024-04-17T16:22:00+00:00,1.4846439361572,3,versionB_stim.csv,ReadVersion.csv,Read,Read2,WINDOW,HANDLE,Study2,M,19,19,Study,User,-,,Study/JOL,"Study Phase",1392,,,-1,-1,,,,1
w467523BR,gs0bocygg9,"Mediated JOLs",1,17,2024-04-17T16:22:01+00:00,1.1964280605316,3,versionB_stim.csv,ReadVersion.csv,Read,Read2,DEATH,BUSINESS,Study2,U,44,33,Study,User,-,,Study/JOL,"Study Phase",1098,,,-1,-1,,,,1
w467523BR,gs0bocygg9,"Mediated JOLs",1,18,2024-04-17T16:22:02+00:00,0.98599481582642,3,versionB_stim.csv,ReadVersion.csv,Read,Read2,PANTS,DOG,Study2,M,8,28,Study,User,-,,Study/JOL,"Study Phase",892,,,-1,-1,,,,1
w467523BR,gs0bocygg9,"Mediated JOLs",1,19,2024-04-17T16:22:03+00:00,0.83209705352783,3,versionB_stim.csv,ReadVersion.csv,Read,Read2,SUMMER,WHITE,Study2,M,6,27,Study,User,-,,Study/JOL,"Study Phase",734,,,-1,-1,,,,1
w467523BR,gs0bocygg9,"Mediated JOLs",1,20,2024-04-17T16:22:03+00:00,0.80828499794006,3,versionB_stim.csv,ReadVersion.csv,Read,Read2,RAKE,PLANT,Study2,M,14,44,Study,User,-,,Study/JOL,"Study Phase",702,,,-1,-1,,,,1
w467523BR,gs0bocygg9,"Mediated JOLs",1,21,2024-04-17T16:22:04+00:00,0.75037407875061,3,versionB_stim.csv,ReadVersion.csv,Read,Read2,NURSE,COURT,Study2,M,11,36,Study,User,-,,Study/JOL,"Study Phase",655,,,-1,-1,,,,1
w467523BR,gs0bocygg9,"Mediated JOLs",1,22,2024-04-17T16:22:05+00:00,0.66505098342896,3,versionB_stim.csv,ReadVersion.csv,Read,Read2,BOTH,OUNCE,Study2,U,47,38,Study,User,-,,Study/JOL,"Study Phase",567,,,-1,-1,,,,1
w467523BR,gs0bocygg9,"Mediated JOLs",1,23,2024-04-17T16:22:06+00:00,0.7658109664917,3,versionB_stim.csv,ReadVersion.csv,Read,Read2,CHISEL,HAMMER,Study2,F,23,41,Study,User,-,,Study/JOL,"Study Phase",673,,,-1,-1,,,,1
w467523BR,gs0bocygg9,"Mediated JOLs",1,24,2024-04-17T16:22:06+00:00,0.79575991630554,3,versionB_stim.csv,ReadVersion.csv,Read,Read2,VALLEY,TOP,Study2,M,18,37,Study,User,-,,Study/JOL,"Study Phase",699,,,-1,-1,,,,1
w467523BR,gs0bocygg9,"Mediated JOLs",1,25,2024-04-17T16:22:07+00:00,0.64023613929749,3,versionB_stim.csv,ReadVersion.csv,Read,Read2,EYES,TASTE,Study2,M,10,12,Study,User,-,,Study/JOL,"Study Phase",543,,,-1,-1,,,,1
w467523BR,gs0bocygg9,"Mediated JOLs",1,26,2024-04-17T16:22:09+00:00,1.6734080314636,3,versionB_stim.csv,ReadVersion.csv,Read,Read2,BENCH,HORN,Study2,U,43,8,Study,User,-,,Study/JOL,"Study Phase",1574,,,-1,-1,,,,1
w467523BR,gs0bocygg9,"Mediated JOLs",1,27,2024-04-17T16:22:09+00:00,0.71133780479431,3,versionB_stim.csv,ReadVersion.csv,Read,Read2,OVEN,WEAVE,Study2,M,16,46,Study,User,-,,Study/JOL,"Study Phase",606,,,-1,-1,,,,1
w467523BR,gs0bocygg9,"Mediated JOLs",1,28,2024-04-17T16:22:10+00:00,0.73797702789307,3,versionB_stim.csv,ReadVersion.csv,Read,Read2,HERD,COW,Study2,F,33,13,Study,User,-,,Study/JOL,"Study Phase",630,,,-1,-1,,,,1
w467523BR,gs0bocygg9,"Mediated JOLs",1,29,2024-04-17T16:22:11+00:00,0.54889607429504,3,versionB_stim.csv,ReadVersion.csv,Read,Read2,LEASE,TOIL,Study2,U,46,16,Study,User,-,,Study/JOL,"Study Phase",450,,,-1,-1,,,,1
w467523BR,gs0bocygg9,"Mediated JOLs",1,30,2024-04-17T16:22:11+00:00,0.43734192848206,3,versionB_stim.csv,ReadVersion.csv,Read,Read2,ATTIRE,CLOTHES,Study2,F,24,25,Study,User,-,,Study/JOL,"Study Phase",342,,,-1,-1,,,,1
w467523BR,gs0bocygg9,"Mediated JOLs",1,31,2024-04-17T16:22:12+00:00,0.51830506324768,3,versionB_stim.csv,ReadVersion.csv,Read,Read2,SUGAR,RIDDLE,Study2,U,40,45,Study,User,-,,Study/JOL,"Study Phase",419,,,-1,-1,,,,1
w467523BR,gs0bocygg9,"Mediated JOLs",1,32,2024-04-17T16:22:12+00:00,0.54341602325439,3,versionB_stim.csv,ReadVersion.csv,Read,Read2,BLAZE,FIRE,Study2,F,26,24,Study,User,-,,Study/JOL,"Study Phase",446,,,-1,-1,,,,1
w467523BR,gs0bocygg9,"Mediated JOLs",1,33,2024-04-17T16:22:13+00:00,0.51514792442322,3,versionB_stim.csv,ReadVersion.csv,Read,Read2,SOAP,THIRST,Study2,M,12,23,Study,User,-,,Study/JOL,"Study Phase",410,,,-1,-1,,,,1
w467523BR,gs0bocygg9,"Mediated JOLs",1,34,2024-04-17T16:22:13+00:00,0.48086309432983,3,versionB_stim.csv,ReadVersion.csv,Read,Read2,HAPPY,CAR,Study2,U,37,21,Study,User,-,,Study/JOL,"Study Phase",381,,,-1,-1,,,,1
w467523BR,gs0bocygg9,"Mediated JOLs",1,35,2024-04-17T16:22:14+00:00,0.50249791145325,3,versionB_stim.csv,ReadVersion.csv,Read,Read2,STRONG,ACCIDENT,Study2,U,39,30,Study,User,-,,Study/JOL,"Study Phase",398,,,-1,-1,,,,1
w467523BR,gs0bocygg9,"Mediated JOLs",1,36,2024-04-17T16:22:14+00:00,0.50890517234802,3,versionB_stim.csv,ReadVersion.csv,Read,Read2,TRAP,MAN,Study2,M,15,18,Study,User,-,,Study/JOL,"Study Phase",414,,,-1,-1,,,,1
w467523BR,gs0bocygg9,"Mediated JOLs",1,37,2024-04-17T16:22:15+00:00,0.52355098724365,3,versionB_stim.csv,ReadVersion.csv,Read,Read2,LEAGUE,BASEBALL,Study2,F,29,7,Study,User,-,,Study/JOL,"Study Phase",431,,,-1,-1,,,,1
w467523BR,gs0bocygg9,"Mediated JOLs",1,38,2024-04-17T16:22:15+00:00,0.52189493179321,3,versionB_stim.csv,ReadVersion.csv,Read,Read2,HORNET,STING,Study2,F,30,22,Study,User,-,,Study/JOL,"Study Phase",423,,,-1,-1,,,,1
w467523BR,gs0bocygg9,"Mediated JOLs",1,39,2024-04-17T16:22:16+00:00,0.51337599754333,3,versionB_stim.csv,ReadVersion.csv,Read,Read2,REALITY,WATER,Study2,M,9,42,Study,User,-,,Study/JOL,"Study Phase",402,,,-1,-1,,,,1
w467523BR,gs0bocygg9,"Mediated JOLs",1,40,2024-04-17T16:22:16+00:00,0.5092658996582,3,versionB_stim.csv,ReadVersion.csv,Read,Read2,ARTERY,BRONZE,Study2,U,48,49,Study,User,-,,Study/JOL,"Study Phase",401,,,-1,-1,,,,1
w467523BR,gs0bocygg9,"Mediated JOLs",1,41,2024-04-17T16:22:17+00:00,0.51452803611755,3,versionB_stim.csv,ReadVersion.csv,Read,Read2,RAZOR,ARM,Study2,M,20,31,Study,User,-,,Study/JOL,"Study Phase",416,,,-1,-1,,,,1
w467523BR,gs0bocygg9,"Mediated JOLs",1,42,2024-04-17T16:22:17+00:00,0.48771405220032,3,versionB_stim.csv,ReadVersion.csv,Read,Read2,INCENSE,SMELL,Study2,F,28,9,Study,User,-,,Study/JOL,"Study Phase",388,,,-1,-1,,,,1
w467523BR,gs0bocygg9,"Mediated JOLs",1,43,2024-04-17T16:22:18+00:00,0.46826887130737,3,versionB_stim.csv,ReadVersion.csv,Read,Read2,SICK,HIDE,Study2,U,45,34,Study,User,-,,Study/JOL,"Study Phase",375,,,-1,-1,,,,1
w467523BR,gs0bocygg9,"Mediated JOLs",1,44,2024-04-17T16:22:18+00:00,0.45694804191589,3,versionB_stim.csv,ReadVersion.csv,Read,Read2,DOCUMENT,PAPER,Study2,F,27,14,Study,User,-,,Study/JOL,"Study Phase",363,,,-1,-1,,,,1
w467523BR,gs0bocygg9,"Mediated JOLs",1,45,2024-04-17T16:22:19+00:00,0.47990202903748,3,versionB_stim.csv,ReadVersion.csv,Read,Read2,ART,WOLF,Study2,U,38,43,Study,User,-,,Study/JOL,"Study Phase",387,,,-1,-1,,,,1
w467523BR,gs0bocygg9,"Mediated JOLs",1,46,2024-04-17T16:22:19+00:00,0.46392798423767,3,versionB_stim.csv,ReadVersion.csv,Read,Read2,PUSH,CLUTTER,Study2,U,41,39,Study,User,-,,Study/JOL,"Study Phase",364,,,-1,-1,,,,1
w467523BR,gs0bocygg9,"Mediated JOLs",1,47,2024-04-17T16:22:20+00:00,0.46411395072937,3,versionB_stim.csv,ReadVersion.csv,Read,Read2,CASH,STUDY,Study2,U,50,48,Study,User,-,,Study/JOL,"Study Phase",369,,,-1,-1,,,,1
w467523BR,gs0bocygg9,"Mediated JOLs",1,48,2024-04-17T16:22:20+00:00,0.45550012588501,3,versionB_stim.csv,ReadVersion.csv,Read,Read2,FEUD,FIGHT,Study2,F,31,50,Study,User,-,,Study/JOL,"Study Phase",359,,,-1,-1,,,,1
w467523BR,gs0bocygg9,"Mediated JOLs",1,49,2024-04-17T16:22:21+00:00,0.45564293861389,3,versionB_stim.csv,ReadVersion.csv,Read,Read2,BRIDGE,WATER,Study2,F,35,17,Study,User,-,,Study/JOL,"Study Phase",351,,,-1,-1,,,,1
w467523BR,gs0bocygg9,"Mediated JOLs",1,50,2024-04-17T16:22:21+00:00,0.49387812614441,3,versionB_stim.csv,ReadVersion.csv,Read,Read2,CACTUS,PLANT,Study2,F,21,11,Study,User,-,,Study/JOL,"Study Phase",395,,,-1,-1,,,,1
w467523BR,gs0bocygg9,"Mediated JOLs",1,51,2024-04-17T16:22:22+00:00,0.47225189208984,3,versionB_stim.csv,ReadVersion.csv,Read,Read2,SCHOOL,SIGN,Study2,M,7,15,Study,User,-,,Study/JOL,"Study Phase",369,,,-1,-1,,,,1
w467523BR,gs0bocygg9,"Mediated JOLs",1,52,2024-04-17T16:22:23+00:00,1.1947700977325,3,versionB_stim.csv,ReadVersion.csv,Read,Read2,CHERRY,RED,Study2,F,25,35,Study,User,-,,Study/JOL,"Study Phase",1089,,,-1,-1,,,,1
w467523BR,gs0bocygg9,"Mediated JOLs",1,53,2024-04-17T16:22:23+00:00,0.69181799888611,3,versionB_stim.csv,ReadVersion.csv,Read,Read2,NOODLE,STRING,BUFFER4,Buffer,52,54,Study,User,-,,Study/JOL,BUFFER2,586,,,-1,-1,,,,1
w467523BR,gs0bocygg9,"Mediated JOLs",1,54,2024-04-17T16:22:24+00:00,0.51746392250061,3,versionB_stim.csv,ReadVersion.csv,Read,Read2,CARROT,POTATO,BUFFER4,Buffer,51,55,Study,User,-,,Study/JOL,BUFFER2,423,,,-1,-1,,,,1
w467523BR,gs0bocygg9,"Mediated JOLs",1,55,2024-04-17T16:22:24+00:00,0.50248289108276,3,versionB_stim.csv,ReadVersion.csv,Read,Read2,MALT,CHOCOLATE,BUFFER2,Buffer,108,111,Study,User,-,,Study/JOL,BUFFER2,408,,,-1,-1,,,,1
w467523BR,gs0bocygg9,"Mediated JOLs",1,56,2024-04-17T16:22:25+00:00,0.46248316764832,3,versionB_stim.csv,ReadVersion.csv,Read,Read2,CAMP,ADVENTURE,BUFFER4,Buffer,55,53,Study,User,-,,Study/JOL,BUFFER2,368,,,-1,-1,,,,1
w467523BR,gs0bocygg9,"Mediated JOLs",1,57,2024-04-17T16:22:25+00:00,0.49568891525269,3,versionB_stim.csv,ReadVersion.csv,Read,Read2,SHERRIF,POLICE,BUFFER2,Buffer,107,108,Study,User,-,,Study/JOL,BUFFER2,399,,,-1,-1,,,,1
w467523BR,gs0bocygg9,"Mediated JOLs",1,58,2024-04-17T16:22:28+00:00,2.7533531188965,3,versionB_stim.csv,ReadVersion.csv,Read,Read2,,,,,,0,Instruct,User,-,"You have completed this section. Please press Enter.",Filler_Instruction,Instruct2,2659,,,-1,-1,,,,1
w467523BR,gs0bocygg9,"Mediated JOLs",1,59,2024-04-17T16:24:29+00:00,120.3824968338,3,versionB_stim.csv,ReadVersion.csv,Read,Read2,,,,,,0,FreeRecall,120,120,"Please list the 50 US states in alphabetical order. The task will automatically advance to the next screen after two minutes.",,Filler1,120000,"alabama arkansas ",0,6037,17623,0,0,,0.448
w467523BR,gs0bocygg9,"Mediated JOLs",1,60,2024-04-17T16:26:45+00:00,136.82202601433,3,versionB_stim.csv,ReadVersion.csv,Read,Read2,,,,,,0,Instruct,-,10,"You will now be presented with the first word from each of the previously studied item pairs. Please type the missing word. If you do not know the word, you may guess or press Enter to skip forward to the next pair.",,Instruct3,136597,,,-1,-1,,,,0
w467523BR,gs0bocygg9,"Mediated JOLs",1,61,2024-04-17T16:26:48+00:00,2.7142159938812,3,versionB_stim.csv,ReadVersion.csv,Read,Read2,LEASE,TOIL,Study2,U,46,16,Test,User,-,,Recall,Recall1,2611,rent,25,2124,2471,0,0,,1
w467523BR,gs0bocygg9,"Mediated JOLs",1,62,2024-04-17T16:26:52+00:00,3.8207070827484,3,versionB_stim.csv,ReadVersion.csv,Read,Read2,BOTH,OUNCE,Study2,U,47,38,Test,User,-,,Recall,Recall1,3717,car,25,2819,3548,0,0,,1
w467523BR,gs0bocygg9,"Mediated JOLs",1,63,2024-04-17T16:26:55+00:00,2.9259030818939,3,versionB_stim.csv,ReadVersion.csv,Read,Read2,PUSH,CLUTTER,Study2,U,41,39,Test,User,-,,Recall,Recall1,2826,pull,18.181818181818,1482,2682,0,0,,1
w467523BR,gs0bocygg9,"Mediated JOLs",1,64,2024-04-17T16:26:57+00:00,2.6844480037689,3,versionB_stim.csv,ReadVersion.csv,Read,Read2,ATTIRE,CLOTHES,Study2,F,24,25,Test,User,-,,Recall,Recall1,2587,retire,15.384615384615,1806,2492,0,0,,1
w467523BR,gs0bocygg9,"Mediated JOLs",1,65,2024-04-17T16:27:04+00:00,6.2758657932281,3,versionB_stim.csv,ReadVersion.csv,Read,Read2,ART,WOLF,Study2,U,38,43,Test,User,-,,Recall,Recall1,6173,subjective,0,4546,5996,0,0,,1
w467523BR,gs0bocygg9,"Mediated JOLs",1,66,2024-04-17T16:27:11+00:00,7.4475240707397,3,versionB_stim.csv,ReadVersion.csv,Read,Read2,CASH,STUDY,Study2,U,50,48,Test,User,-,,Recall,Recall1,7343,penny,20,2658,7121,0,0,,1
w467523BR,gs0bocygg9,"Mediated JOLs",1,67,2024-04-17T16:27:13+00:00,2.275074005127,3,versionB_stim.csv,ReadVersion.csv,Read,Read2,SOAP,THIRST,Study2,M,12,23,Test,User,-,,Recall,Recall1,2175,clean,0,1587,1992,0,0,,1
w467523BR,gs0bocygg9,"Mediated JOLs",1,68,2024-04-17T16:27:16+00:00,2.6370410919189,3,versionB_stim.csv,ReadVersion.csv,Read,Read2,NURSE,COURT,Study2,M,11,36,Test,User,-,,Recall,Recall1,2529,job,25,2125,2341,0,0,,1
w467523BR,gs0bocygg9,"Mediated JOLs",1,69,2024-04-17T16:27:20+00:00,4.2443108558655,3,versionB_stim.csv,ReadVersion.csv,Read,Read2,LEAGUE,BASEBALL,Study2,F,29,7,Test,User,-,,Recall,Recall1,4146,school,28.571428571429,3202,3981,0,0,,1
w467523BR,gs0bocygg9,"Mediated JOLs",1,70,2024-04-17T16:27:23+00:00,2.220458984375,3,versionB_stim.csv,ReadVersion.csv,Read,Read2,CHISEL,HAMMER,Study2,F,23,41,Test,User,-,,Recall,Recall1,2106,stoe,20,1605,2000,0,0,,1
w467523BR,gs0bocygg9,"Mediated JOLs",1,71,2024-04-17T16:27:26+00:00,3.4466280937195,3,versionB_stim.csv,ReadVersion.csv,Read,Read2,BENCH,HORN,Study2,U,43,8,Test,User,-,,Recall,Recall1,3333,sit,0,2955,3203,0,0,,1
w467523BR,gs0bocygg9,"Mediated JOLs",1,72,2024-04-17T16:27:28+00:00,2.2561891078949,3,versionB_stim.csv,ReadVersion.csv,Read,Read2,OVEN,WEAVE,Study2,M,16,46,Test,User,-,,Recall,Recall1,2153,cook,0,1520,1981,0,0,,1
w467523BR,gs0bocygg9,"Mediated JOLs",1,73,2024-04-17T16:27:30+00:00,1.9090988636017,3,versionB_stim.csv,ReadVersion.csv,Read,Read2,HAPPY,CAR,Study2,U,37,21,Test,User,-,,Recall,Recall1,1808,sad,33.333333333333,1338,1691,0,0,,1
w467523BR,gs0bocygg9,"Mediated JOLs",1,74,2024-04-17T16:27:34+00:00,3.8577470779419,3,versionB_stim.csv,ReadVersion.csv,Read,Read2,SUMMER,WHITE,Study2,M,6,27,Test,User,-,,Recall,Recall1,3758,fast,22.222222222222,1261,3625,0,0,,1
w467523BR,gs0bocygg9,"Mediated JOLs",1,75,2024-04-17T16:27:39+00:00,4.980700969696,3,versionB_stim.csv,ReadVersion.csv,Read,Read2,FEUD,FIGHT,Study2,F,31,50,Test,User,-,,Recall,Recall1,4879,fight,100,4362,4765,1,1,,1
w467523BR,gs0bocygg9,"Mediated JOLs",1,76,2024-04-17T16:27:41+00:00,2.0082759857178,3,versionB_stim.csv,ReadVersion.csv,Read,Read2,WINDOW,HANDLE,Study2,M,19,19,Test,User,-,,Recall,Recall1,1904,clear,36.363636363636,1362,1768,0,0,,1
w467523BR,gs0bocygg9,"Mediated JOLs",1,77,2024-04-17T16:27:45+00:00,3.4600601196289,3,versionB_stim.csv,ReadVersion.csv,Read,Read2,HERD,COW,Study2,F,33,13,Test,User,-,,Recall,Recall1,3347,"shepherd ",0,1546,3074,0,0,,1
w467523BR,gs0bocygg9,"Mediated JOLs",1,78,2024-04-17T16:27:47+00:00,2.8070428371429,3,versionB_stim.csv,ReadVersion.csv,Read,Read2,CHERRY,RED,Study2,F,25,35,Test,User,-,,Recall,Recall1,2703,blossom,0,1066,2506,0,0,,1
w467523BR,gs0bocygg9,"Mediated JOLs",1,79,2024-04-17T16:27:50+00:00,2.2193131446838,3,versionB_stim.csv,ReadVersion.csv,Read,Read2,VALLEY,TOP,Study2,M,18,37,Test,User,-,,Recall,Recall1,2112,wind,0,1732,2027,0,0,,1
w467523BR,gs0bocygg9,"Mediated JOLs",1,80,2024-04-17T16:27:53+00:00,3.0016219615936,3,versionB_stim.csv,ReadVersion.csv,Read,Read2,SCHOOL,SIGN,Study2,M,7,15,Test,User,-,,Recall,Recall1,2889,night,44.444444444444,2320,2737,0,0,,1
w467523BR,gs0bocygg9,"Mediated JOLs",1,81,2024-04-17T16:27:56+00:00,3.3738079071045,3,versionB_stim.csv,ReadVersion.csv,Read,Read2,CACTUS,PLANT,Study2,F,21,11,Test,User,-,,Recall,Recall1,3269,water,40,2661,3151,0,0,,1
w467523BR,gs0bocygg9,"Mediated JOLs",1,82,2024-04-17T16:28:02+00:00,6.4131979942322,3,versionB_stim.csv,ReadVersion.csv,Read,Read2,REALITY,WATER,Study2,M,9,42,Test,User,-,,Recall,Recall1,6311,physical,15.384615384615,4828,6100,0,0,,1
w467523BR,gs0bocygg9,"Mediated JOLs",1,83,2024-04-17T16:28:05+00:00,2.7424139976501,3,versionB_stim.csv,ReadVersion.csv,Read,Read2,RAZOR,ARM,Study2,M,20,31,Test,User,-,,Recall,Recall1,2638,sharp,50,1340,2337,0,0,,1
w467523BR,gs0bocygg9,"Mediated JOLs",1,84,2024-04-17T16:28:07+00:00,1.7483730316162,3,versionB_stim.csv,ReadVersion.csv,Read,Read2,CHOP,CUT,Study2,F,22,51,Test,User,-,,Recall,Recall1,1635,wood,0,1183,1543,0,0,,1
w467523BR,gs0bocygg9,"Mediated JOLs",1,85,2024-04-17T16:28:09+00:00,2.506087064743,3,versionB_stim.csv,ReadVersion.csv,Read,Read2,GRILL,LEG,Study2,M,17,32,Test,User,-,,Recall,Recall1,2404,steak,25,1329,1939,0,0,,1
w467523BR,gs0bocygg9,"Mediated JOLs",1,86,2024-04-17T16:28:12+00:00,3.0478990077972,3,versionB_stim.csv,ReadVersion.csv,Read,Read2,BLAZE,FIRE,Study2,F,26,24,Test,User,-,,Recall,Recall1,2952,fire,100,2571,2884,1,1,,1
w467523BR,gs0bocygg9,"Mediated JOLs",1,87,2024-04-17T16:28:16+00:00,3.9280660152435,3,versionB_stim.csv,ReadVersion.csv,Read,Read2,INCENSE,SMELL,Study2,F,28,9,Test,User,-,,Recall,Recall1,3817,small,80,3169,3673,0,1,,1
w467523BR,gs0bocygg9,"Mediated JOLs",1,88,2024-04-17T16:28:20+00:00,3.6702330112457,3,versionB_stim.csv,ReadVersion.csv,Read,Read2,ARTERY,BRONZE,Study2,U,48,49,Test,User,-,,Recall,Recall1,3561,blood,36.363636363636,2873,3481,0,0,,1
w467523BR,gs0bocygg9,"Mediated JOLs",1,89,2024-04-17T16:28:22+00:00,2.3828239440918,3,versionB_stim.csv,ReadVersion.csv,Read,Read2,HORNET,STING,Study2,F,30,22,Test,User,-,,Recall,Recall1,2287,team,22.222222222222,1762,2114,0,0,,1
w467523BR,gs0bocygg9,"Mediated JOLs",1,90,2024-04-17T16:28:26+00:00,3.2227029800415,3,versionB_stim.csv,ReadVersion.csv,Read,Read2,DIETARY,SACK,Study2,U,42,40,Test,User,-,,Recall,Recall1,3117,food,0,2599,3030,0,0,,1
w467523BR,gs0bocygg9,"Mediated JOLs",1,91,2024-04-17T16:28:28+00:00,2.3266580104828,3,versionB_stim.csv,ReadVersion.csv,Read,Read2,CHILL,COLD,Study2,F,32,10,Test,User,-,,Recall,Recall1,2218,frozen,20,1415,2061,0,0,,1
w467523BR,gs0bocygg9,"Mediated JOLs",1,92,2024-04-17T16:28:31+00:00,3.242152929306,3,versionB_stim.csv,ReadVersion.csv,Read,Read2,WASP,BUG,Study2,F,34,26,Test,User,-,,Recall,Recall1,3140,colony,0,2206,2959,0,0,,1
w467523BR,gs0bocygg9,"Mediated JOLs",1,93,2024-04-17T16:28:37+00:00,6.2529740333557,3,versionB_stim.csv,ReadVersion.csv,Read,Read2,SICK,HIDE,Study2,U,45,34,Test,User,-,,Recall,Recall1,6148,better,20,4966,6084,0,0,,1
w467523BR,gs0bocygg9,"Mediated JOLs",1,94,2024-04-17T16:28:40+00:00,2.5655701160431,3,versionB_stim.csv,ReadVersion.csv,Read,Read2,PANTS,DOG,Study2,M,8,28,Test,User,-,,Recall,Recall1,2468,short,25,1827,2363,0,0,,1
w467523BR,gs0bocygg9,"Mediated JOLs",1,95,2024-04-17T16:28:42+00:00,2.22181391716,3,versionB_stim.csv,ReadVersion.csv,Read,Read2,SUGAR,RIDDLE,Study2,U,40,45,Test,User,-,,Recall,Recall1,2128,cane,20,1744,2094,0,0,,1
w467523BR,gs0bocygg9,"Mediated JOLs",1,96,2024-04-17T16:28:44+00:00,1.8518590927124,3,versionB_stim.csv,ReadVersion.csv,Read,Read2,EYES,TASTE,Study2,M,10,12,Test,User,-,,Recall,Recall1,1755,blue,22.222222222222,1247,1657,0,0,,1
w467523BR,gs0bocygg9,"Mediated JOLs",1,97,2024-04-17T16:28:47+00:00,3.4651789665222,3,versionB_stim.csv,ReadVersion.csv,Read,Read2,DOCUMENT,PAPER,Study2,F,27,14,Test,User,-,,Recall,Recall1,3364,folder,36.363636363636,2640,3281,0,0,,1
w467523BR,gs0bocygg9,"Mediated JOLs",1,98,2024-04-17T16:28:53+00:00,5.7998149394989,3,versionB_stim.csv,ReadVersion.csv,Read,Read2,DEATH,BUSINESS,Study2,U,44,33,Test,User,-,,Recall,Recall1,5698,station,40,4814,5507,0,0,,1
w467523BR,gs0bocygg9,"Mediated JOLs",1,99,2024-04-17T16:28:58+00:00,4.9150419235229,3,versionB_stim.csv,ReadVersion.csv,Read,Read2,BRIDGE,WATER,Study2,F,35,17,Test,User,-,,Recall,Recall1,4794,ground,18.181818181818,3218,4662,0,0,,1
w467523BR,gs0bocygg9,"Mediated JOLs",1,100,2024-04-17T16:29:01+00:00,2.8385920524597,3,versionB_stim.csv,ReadVersion.csv,Read,Read2,RAKE,PLANT,Study2,M,14,44,Test,User,-,,Recall,Recall1,2738,yard,22.222222222222,2168,2579,0,0,,1
w467523BR,gs0bocygg9,"Mediated JOLs",1,101,2024-04-17T16:29:03+00:00,2.0679340362549,3,versionB_stim.csv,ReadVersion.csv,Read,Read2,MIRROR,CHILDREN,Study2,U,49,29,Test,User,-,,Recall,Recall1,1961,self,16.666666666667,1467,1868,0,0,,1
w467523BR,gs0bocygg9,"Mediated JOLs",1,102,2024-04-17T16:29:06+00:00,2.75856590271,3,versionB_stim.csv,ReadVersion.csv,Read,Read2,HEAVY,BIRD,Study2,M,13,20,Test,User,-,,Recall,Recall1,2655,flight,20,1139,2503,0,0,,1
w467523BR,gs0bocygg9,"Mediated JOLs",1,103,2024-04-17T16:29:09+00:00,3.0313000679016,3,versionB_stim.csv,ReadVersion.csv,Read,Read2,TRAP,MAN,Study2,M,15,18,Test,User,-,,Recall,Recall1,2932,sign,28.571428571429,2322,2742,0,0,,1
w467523BR,gs0bocygg9,"Mediated JOLs",1,104,2024-04-17T16:29:11+00:00,2.2758460044861,3,versionB_stim.csv,ReadVersion.csv,Read,Read2,STRONG,ACCIDENT,Study2,U,39,30,Test,User,-,,Recall,Recall1,2170,will,16.666666666667,1568,2025,0,0,,1
w467523BR,gs0bocygg9,"Mediated JOLs",1,105,2024-04-17T16:29:13+00:00,2.2918539047241,3,versionB_stim.csv,ReadVersion.csv,Read,Read2,KING,VASE,Study2,U,36,47,Test,User,-,,Recall,Recall1,2194,james,44.444444444444,1664,2133,0,0,,1
w467523BR,gs0bocygg9,"Mediated JOLs",1,106,2024-04-17T16:31:01+00:00,107.98137116432,3,versionB_stim.csv,ReadVersion.csv,Read,Read2,,,,,,0,Instruct,-,10,"You will now be presented with a new set of word pairs. Please study each pair. Remember that your memory will be tested! When finished, press Enter to move to the next pair.",Initial_Instruct,Instruct4,107808,,,-1,-1,,,,1
w467523BR,gs0bocygg9,"Mediated JOLs",1,107,2024-04-17T16:37:05+00:00,363.16612291336,3,versionB_stim.csv,ReadVersion.csv,Read,Read2,,,,,,0,Instruct,User,-,"Press Enter when you are readty to begin",,Instruct11,362921,,,-1,-1,,,,0.461
w467523BR,gs0bocygg9,"Mediated JOLs",1,108,2024-04-17T16:37:07+00:00,2.7171850204468,3,versionB_stim.csv,ReadVersion.csv,Read,Read2,MOON,SPACE,BUFFER2,Buffer,109,107,Study,User,-,,Study/JOL,BUFFER2,2616,,,-1,-1,,,,1
w467523BR,gs0bocygg9,"Mediated JOLs",1,109,2024-04-17T16:37:09+00:00,1.6783149242401,3,versionB_stim.csv,ReadVersion.csv,Read,Read2,SHRIMP,FISH,BUFFER4,Buffer,53,52,Study,User,-,,Study/JOL,BUFFER2,1583,,,-1,-1,,,,1
w467523BR,gs0bocygg9,"Mediated JOLs",1,110,2024-04-17T16:37:10+00:00,1.2747859954834,3,versionB_stim.csv,ReadVersion.csv,Read,Read2,PITCHER,CATCHER,BUFFER1,Buffer,57,61,Study,User,-,,Study/JOL,BUFFER2,1178,,,-1,-1,,,,1
w467523BR,gs0bocygg9,"Mediated JOLs",1,111,2024-04-17T16:37:12+00:00,1.2436289787292,3,versionB_stim.csv,ReadVersion.csv,Read,Read2,PEANUT,BUTTER,BUFFER1,Buffer,58,57,Study,User,-,,Study/JOL,BUFFER2,1135,,,-1,-1,,,,1
w467523BR,gs0bocygg9,"Mediated JOLs",1,112,2024-04-17T16:37:13+00:00,1.7007281780243,3,versionB_stim.csv,ReadVersion.csv,Read,Read2,THING,STUFF,BUFFER2,Buffer,110,110,Study,User,-,,Study/JOL,BUFFER2,1602,,,-1,-1,,,,1
w467523BR,gs0bocygg9,"Mediated JOLs",1,113,2024-04-17T16:37:14+00:00,1.1705989837646,3,versionB_stim.csv,ReadVersion.csv,Read,Read2,TEMPERATURE,MORNING,Study1,U,103,77,Study,User,-,,Study/JOL,"Study Phase2",1056,,,-1,-1,,,,1
w467523BR,gs0bocygg9,"Mediated JOLs",1,114,2024-04-17T16:37:17+00:00,2.9261248111725,3,versionB_stim.csv,ReadVersion.csv,Read,Read2,ROOT,PLANT,Study1,F,80,91,Study,User,-,,Study/JOL,"Study Phase2",2829,,,-1,-1,,,,1
w467523BR,gs0bocygg9,"Mediated JOLs",1,115,2024-04-17T16:37:19+00:00,1.6755261421204,3,versionB_stim.csv,ReadVersion.csv,Read,Read2,LITTER,TRASH,Study1,F,76,87,Study,User,-,,Study/JOL,"Study Phase2",1575,,,-1,-1,,,,1
w467523BR,gs0bocygg9,"Mediated JOLs",1,116,2024-04-17T16:37:21+00:00,1.535003900528,3,versionB_stim.csv,ReadVersion.csv,Read,Read2,VEHICLE,CHARM,Study1,U,95,65,Study,User,-,,Study/JOL,"Study Phase2",1430,,,-1,-1,,,,1
w467523BR,gs0bocygg9,"Mediated JOLs",1,117,2024-04-17T16:37:22+00:00,1.4139311313629,3,versionB_stim.csv,ReadVersion.csv,Read,Read2,TOOTH,COMB,Study1,M,74,82,Study,User,-,,Study/JOL,"Study Phase2",1298,,,-1,-1,,,,1
w467523BR,gs0bocygg9,"Mediated JOLs",1,118,2024-04-17T16:37:24+00:00,1.991791009903,3,versionB_stim.csv,ReadVersion.csv,Read,Read2,CIRCLE,FUN,Study1,M,68,97,Study,User,-,,Study/JOL,"Study Phase2",1894,,,-1,-1,,,,1
w467523BR,gs0bocygg9,"Mediated JOLs",1,119,2024-04-17T16:37:25+00:00,1.2271478176117,3,versionB_stim.csv,ReadVersion.csv,Read,Read2,ORCHID,FLOWER,Study1,F,89,67,Study,User,-,,Study/JOL,"Study Phase2",1132,,,-1,-1,,,,1
w467523BR,gs0bocygg9,"Mediated JOLs",1,120,2024-04-17T16:37:27+00:00,1.3967440128326,3,versionB_stim.csv,ReadVersion.csv,Read,Read2,MAZE,PHONE,Study1,U,97,96,Study,User,-,,Study/JOL,"Study Phase2",1293,,,-1,-1,,,,1
w467523BR,gs0bocygg9,"Mediated JOLs",1,121,2024-04-17T16:37:29+00:00,2.1955201625824,3,versionB_stim.csv,ReadVersion.csv,Read,Read2,CRACKLE,ELECTION,Study1,U,94,105,Study,User,-,,Study/JOL,"Study Phase2",2101,,,-1,-1,,,,1
w467523BR,gs0bocygg9,"Mediated JOLs",1,122,2024-04-17T16:37:30+00:00,1.1665048599243,3,versionB_stim.csv,ReadVersion.csv,Read,Read2,BAT,JUMP,Study1,M,67,102,Study,User,-,,Study/JOL,"Study Phase2",1058,,,-1,-1,,,,1
w467523BR,gs0bocygg9,"Mediated JOLs",1,123,2024-04-17T16:37:31+00:00,1.3541321754456,3,versionB_stim.csv,ReadVersion.csv,Read,Read2,CREDIT,CARD,Study1,F,88,68,Study,User,-,,Study/JOL,"Study Phase2",1256,,,-1,-1,,,,1
w467523BR,gs0bocygg9,"Mediated JOLs",1,124,2024-04-17T16:37:32+00:00,0.99103379249573,3,versionB_stim.csv,ReadVersion.csv,Read,Read2,BIRTHDAY,APPLE,Study1,M,64,99,Study,User,-,,Study/JOL,"Study Phase2",882,,,-1,-1,,,,1
w467523BR,gs0bocygg9,"Mediated JOLs",1,125,2024-04-17T16:37:34+00:00,2.0241751670837,3,versionB_stim.csv,ReadVersion.csv,Read,Read2,CEILING,RUG,Study1,M,70,88,Study,User,-,,Study/JOL,"Study Phase2",1917,,,-1,-1,,,,1
w467523BR,gs0bocygg9,"Mediated JOLs",1,126,2024-04-17T16:37:37+00:00,2.5044648647308,3,versionB_stim.csv,ReadVersion.csv,Read,Read2,HYGIENE,CLEAN,Study1,F,83,95,Study,User,-,,Study/JOL,"Study Phase2",2411,,,-1,-1,,,,1
w467523BR,gs0bocygg9,"Mediated JOLs",1,127,2024-04-17T16:37:38+00:00,1.1502630710602,3,versionB_stim.csv,ReadVersion.csv,Read,Read2,CRY,BEER,Study1,M,71,72,Study,User,-,,Study/JOL,"Study Phase2",1047,,,-1,-1,,,,1
w467523BR,gs0bocygg9,"Mediated JOLs",1,128,2024-04-17T16:37:39+00:00,1.388925075531,3,versionB_stim.csv,ReadVersion.csv,Read,Read2,SIGN,TICK,Study1,U,102,106,Study,User,-,,Study/JOL,"Study Phase2",1286,,,-1,-1,,,,1
w467523BR,gs0bocygg9,"Mediated JOLs",1,129,2024-04-17T16:37:41+00:00,1.3740170001984,3,versionB_stim.csv,ReadVersion.csv,Read,Read2,CAKE,HAND,Study1,U,104,71,Study,User,-,,Study/JOL,"Study Phase2",1276,,,-1,-1,,,,1
w467523BR,gs0bocygg9,"Mediated JOLs",1,130,2024-04-17T16:37:43+00:00,2.1147289276123,3,versionB_stim.csv,ReadVersion.csv,Read,Read2,KEYS,ROD,Study1,U,100,84,Study,User,-,,Study/JOL,"Study Phase2",2011,,,-1,-1,,,,1
w467523BR,gs0bocygg9,"Mediated JOLs",1,131,2024-04-17T16:37:44+00:00,1.5535349845886,3,versionB_stim.csv,ReadVersion.csv,Read,Read2,ROUGH,WORM,Study1,M,65,85,Study,User,-,,Study/JOL,"Study Phase2",1458,,,-1,-1,,,,1
w467523BR,gs0bocygg9,"Mediated JOLs",1,132,2024-04-17T16:37:46+00:00,1.4067270755768,3,versionB_stim.csv,ReadVersion.csv,Read,Read2,SIP,DRINK,Study1,F,87,74,Study,User,-,,Study/JOL,"Study Phase2",1311,,,-1,-1,,,,1
w467523BR,gs0bocygg9,"Mediated JOLs",1,133,2024-04-17T16:37:47+00:00,1.6680679321289,3,versionB_stim.csv,ReadVersion.csv,Read,Read2,MIRROR,MAROON,Study1,U,91,94,Study,User,-,,Study/JOL,"Study Phase2",1566,,,-1,-1,,,,1
w467523BR,gs0bocygg9,"Mediated JOLs",1,134,2024-04-17T16:37:49+00:00,1.3937721252441,3,versionB_stim.csv,ReadVersion.csv,Read,Read2,HARD,BALL,Study1,M,75,90,Study,User,-,,Study/JOL,"Study Phase2",1290,,,-1,-1,,,,1
w467523BR,gs0bocygg9,"Mediated JOLs",1,135,2024-04-17T16:37:50+00:00,1.2914447784424,3,versionB_stim.csv,ReadVersion.csv,Read,Read2,FUZZY,BANG,Study1,U,105,69,Study,User,-,,Study/JOL,"Study Phase2",1187,,,-1,-1,,,,1
w467523BR,gs0bocygg9,"Mediated JOLs",1,136,2024-04-17T16:37:53+00:00,2.6079301834106,3,versionB_stim.csv,ReadVersion.csv,Read,Read2,WEDDING,HAND,Study1,M,72,64,Study,User,-,,Study/JOL,"Study Phase2",2497,,,-1,-1,,,,1
w467523BR,gs0bocygg9,"Mediated JOLs",1,137,2024-04-17T16:37:55+00:00,1.968948841095,3,versionB_stim.csv,ReadVersion.csv,Read,Read2,GIVE,STEAK,Study1,U,93,66,Study,User,-,,Study/JOL,"Study Phase2",1869,,,-1,-1,,,,1
w467523BR,gs0bocygg9,"Mediated JOLs",1,138,2024-04-17T16:37:56+00:00,1.3202180862427,3,versionB_stim.csv,ReadVersion.csv,Read,Read2,BEACH,SQUARE,Study1,M,62,73,Study,User,-,,Study/JOL,"Study Phase2",1221,,,-1,-1,,,,1
w467523BR,gs0bocygg9,"Mediated JOLs",1,139,2024-04-17T16:37:58+00:00,1.6534349918365,3,versionB_stim.csv,ReadVersion.csv,Read,Read2,SOON,BELT,Study1,U,101,78,Study,User,-,,Study/JOL,"Study Phase2",1557,,,-1,-1,,,,1
w467523BR,gs0bocygg9,"Mediated JOLs",1,140,2024-04-17T16:38:00+00:00,1.8986220359802,3,versionB_stim.csv,ReadVersion.csv,Read,Read2,TREE,PANCAKES,Study1,M,66,93,Study,User,-,,Study/JOL,"Study Phase2",1788,,,-1,-1,,,,1
w467523BR,gs0bocygg9,"Mediated JOLs",1,141,2024-04-17T16:38:01+00:00,1.2649259567261,3,versionB_stim.csv,ReadVersion.csv,Read,Read2,NAP,SLEEP,Study1,F,84,86,Study,User,-,,Study/JOL,"Study Phase2",1157,,,-1,-1,,,,1
w467523BR,gs0bocygg9,"Mediated JOLs",1,142,2024-04-17T16:38:02+00:00,1.3273000717163,3,versionB_stim.csv,ReadVersion.csv,Read,Read2,WORD,SENTENCE,Study1,F,82,89,Study,User,-,,Study/JOL,"Study Phase2",1226,,,-1,-1,,,,1
w467523BR,gs0bocygg9,"Mediated JOLs",1,143,2024-04-17T16:38:03+00:00,1.2587080001831,3,versionB_stim.csv,ReadVersion.csv,Read,Read2,MEAT,KEYS,Study1,U,96,92,Study,User,-,,Study/JOL,"Study Phase2",1152,,,-1,-1,,,,1
w467523BR,gs0bocygg9,"Mediated JOLs",1,144,2024-04-17T16:38:05+00:00,1.2765378952026,3,versionB_stim.csv,ReadVersion.csv,Read,Read2,MULE,DONKEY,Study1,F,79,80,Study,User,-,,Study/JOL,"Study Phase2",1176,,,-1,-1,,,,1
w467523BR,gs0bocygg9,"Mediated JOLs",1,145,2024-04-17T16:38:06+00:00,1.3261260986328,3,versionB_stim.csv,ReadVersion.csv,Read,Read2,WAR,LOUD,Study1,M,63,76,Study,User,-,,Study/JOL,"Study Phase2",1228,,,-1,-1,,,,1
w467523BR,gs0bocygg9,"Mediated JOLs",1,146,2024-04-17T16:38:07+00:00,1.2780079841614,3,versionB_stim.csv,ReadVersion.csv,Read,Read2,SWAN,BIRD,Study1,F,81,104,Study,User,-,,Study/JOL,"Study Phase2",1170,,,-1,-1,,,,1
w467523BR,gs0bocygg9,"Mediated JOLs",1,147,2024-04-17T16:38:09+00:00,1.1705060005188,3,versionB_stim.csv,ReadVersion.csv,Read,Read2,SHELL,SHAKE,Study1,U,98,70,Study,User,-,,Study/JOL,"Study Phase2",1068,,,-1,-1,,,,1
w467523BR,gs0bocygg9,"Mediated JOLs",1,148,2024-04-17T16:38:10+00:00,1.5350420475006,3,versionB_stim.csv,ReadVersion.csv,Read,Read2,LION,FLAG,Study1,M,61,79,Study,User,-,,Study/JOL,"Study Phase2",1432,,,-1,-1,,,,1
w467523BR,gs0bocygg9,"Mediated JOLs",1,149,2024-04-17T16:38:11+00:00,1.3147659301758,3,versionB_stim.csv,ReadVersion.csv,Read,Read2,WAGE,MONEY,Study1,F,77,83,Study,User,-,,Study/JOL,"Study Phase2",1215,,,-1,-1,,,,1
w467523BR,gs0bocygg9,"Mediated JOLs",1,150,2024-04-17T16:38:13+00:00,1.6097340583801,3,versionB_stim.csv,ReadVersion.csv,Read,Read2,AFFECTION,LOVE,Study1,F,86,103,Study,User,-,,Study/JOL,"Study Phase2",1506,,,-1,-1,,,,1
w467523BR,gs0bocygg9,"Mediated JOLs",1,151,2024-04-17T16:38:14+00:00,1.2894668579102,3,versionB_stim.csv,ReadVersion.csv,Read,Read2,DAY,BLACK,Study1,M,73,75,Study,User,-,,Study/JOL,"Study Phase2",1190,,,-1,-1,,,,1
w467523BR,gs0bocygg9,"Mediated JOLs",1,152,2024-04-17T16:38:16+00:00,1.292464017868,3,versionB_stim.csv,ReadVersion.csv,Read,Read2,STRETCH,CLOTH,Study1,U,92,101,Study,User,-,,Study/JOL,"Study Phase2",1193,,,-1,-1,,,,1
w467523BR,gs0bocygg9,"Mediated JOLs",1,153,2024-04-17T16:38:17+00:00,1.2499561309814,3,versionB_stim.csv,ReadVersion.csv,Read,Read2,HORSE,TIRE,Study1,M,69,81,Study,User,-,,Study/JOL,"Study Phase2",1150,,,-1,-1,,,,1
w467523BR,gs0bocygg9,"Mediated JOLs",1,154,2024-04-17T16:38:18+00:00,1.2449669837952,3,versionB_stim.csv,ReadVersion.csv,Read,Read2,MULE,DONKEY,Study1,F,85,62,Study,User,-,,Study/JOL,"Study Phase2",1146,,,-1,-1,,,,1
w467523BR,gs0bocygg9,"Mediated JOLs",1,155,2024-04-17T16:38:22+00:00,4.0078568458557,3,versionB_stim.csv,ReadVersion.csv,Read,Read2,LISTEN,FICTION,Study1,U,99,100,Study,User,-,,Study/JOL,"Study Phase2",3908,,,-1,-1,,,,1
w467523BR,gs0bocygg9,"Mediated JOLs",1,156,2024-04-17T16:38:23+00:00,1.376079082489,3,versionB_stim.csv,ReadVersion.csv,Read,Read2,SCALP,HEAD,Study1,F,78,63,Study,User,-,,Study/JOL,"Study Phase2",1275,,,-1,-1,,,,1
w467523BR,gs0bocygg9,"Mediated JOLs",1,157,2024-04-17T16:38:25+00:00,1.2072660923004,3,versionB_stim.csv,ReadVersion.csv,Read,Read2,TUNA,FISH,Study1,F,90,98,Study,User,-,,Study/JOL,"Study Phase2",1106,,,-1,-1,,,,1
w467523BR,gs0bocygg9,"Mediated JOLs",1,158,2024-04-17T16:38:26+00:00,1.3334789276123,3,versionB_stim.csv,ReadVersion.csv,Read,Read2,SCARE,FRIGHT,BUFFER1,Buffer,59,59,Study,User,-,,Study/JOL,BUFFER2,1223,,,-1,-1,,,,1
w467523BR,gs0bocygg9,"Mediated JOLs",1,159,2024-04-17T16:38:27+00:00,1.23677110672,3,versionB_stim.csv,ReadVersion.csv,Read,Read2,GEESE,GOOSE,BUFFER2,Buffer,106,109,Study,User,-,,Study/JOL,BUFFER2,1131,,,-1,-1,,,,1
w467523BR,gs0bocygg9,"Mediated JOLs",1,160,2024-04-17T16:38:29+00:00,1.3171589374542,3,versionB_stim.csv,ReadVersion.csv,Read,Read2,TREES,GREEN,BUFFER1,Buffer,56,60,Study,User,-,,Study/JOL,BUFFER2,1217,,,-1,-1,,,,1
w467523BR,gs0bocygg9,"Mediated JOLs",1,161,2024-04-17T16:38:30+00:00,1.2088220119476,3,versionB_stim.csv,ReadVersion.csv,Read,Read2,ICE,FROZEN,BUFFER4,Buffer,54,56,Study,User,-,,Study/JOL,BUFFER2,1108,,,-1,-1,,,,1
w467523BR,gs0bocygg9,"Mediated JOLs",1,162,2024-04-17T16:38:31+00:00,1.3555338382721,3,versionB_stim.csv,ReadVersion.csv,Read,Read2,SPACE,JAM,BUFFER1,Buffer,60,58,Study,User,-,,Study/JOL,BUFFER2,1257,,,-1,-1,,,,1
w467523BR,gs0bocygg9,"Mediated JOLs",1,163,2024-04-17T16:38:32+00:00,1.101459980011,3,versionB_stim.csv,ReadVersion.csv,Read,Read2,,,,,,0,Instruct,User,-,"You have completed this section. Please press Enter.",Filler_Instruction,Instruct2,998,,,-1,-1,,,,1
w467523BR,gs0bocygg9,"Mediated JOLs",1,164,2024-04-17T16:40:32+00:00,120.26186203957,3,versionB_stim.csv,ReadVersion.csv,Read,Read2,,,,,,0,FreeRecall,120,120,"Please list the 50 US states in alphabetical order. The task will automatically advance to the next screen after two minutes.",,Filler1,120001,,0,-1,-1,0,0,,0.709
w467523BR,gs0bocygg9,"Mediated JOLs",1,165,2024-04-17T16:41:33+00:00,60.244403123856,3,versionB_stim.csv,ReadVersion.csv,Read,Read2,,,,,,0,Instruct,-,10,"You will now be presented with the first word from each of the previously studied item pairs. Please type the missing word. If you do not know the word, you may guess or press Enter to skip forward to the next pair.",,Instruct3,60116,,,-1,-1,,,,1
w467523BR,gs0bocygg9,"Mediated JOLs",1,166,2024-04-17T16:41:36+00:00,3.2687339782715,3,versionB_stim.csv,ReadVersion.csv,Read,Read2,MULE,DONKEY,Study1,F,85,62,Test,User,-,,Recall,Recall2,3161,donkey,100,1943,2959,1,1,,1
w467523BR,gs0bocygg9,"Mediated JOLs",1,167,2024-04-17T16:41:37+00:00,1.4785280227661,3,versionB_stim.csv,ReadVersion.csv,Read,Read2,TUNA,FISH,Study1,F,90,98,Test,User,-,,Recall,Recall2,1372,fish,100,867,1216,1,1,,1
w467523BR,gs0bocygg9,"Mediated JOLs",1,168,2024-04-17T16:41:39+00:00,1.9240319728851,3,versionB_stim.csv,ReadVersion.csv,Read,Read2,SHELL,SHAKE,Study1,U,98,70,Test,User,-,,Recall,Recall2,1822,shock,60,1139,1641,0,0,,1
w467523BR,gs0bocygg9,"Mediated JOLs",1,169,2024-04-17T16:41:44+00:00,4.8283488750458,3,versionB_stim.csv,ReadVersion.csv,Read,Read2,MEAT,KEYS,Study1,U,96,92,Test,User,-,,Recall,Recall2,4718,potato,0,3363,4141,0,0,,1
w467523BR,gs0bocygg9,"Mediated JOLs",1,170,2024-04-17T16:41:46+00:00,1.6167531013489,3,versionB_stim.csv,ReadVersion.csv,Read,Read2,CEILING,RUG,Study1,M,70,88,Test,User,-,,Recall,Recall2,1516,fan,0,1136,1356,0,0,,1
w467523BR,gs0bocygg9,"Mediated JOLs",1,171,2024-04-17T16:41:49+00:00,3.6349940299988,3,versionB_stim.csv,ReadVersion.csv,Read,Read2,SIGN,TICK,Study1,U,102,106,Test,User,-,,Recall,Recall2,3537,post,25,3024,3428,0,0,,1
w467523BR,gs0bocygg9,"Mediated JOLs",1,172,2024-04-17T16:41:54+00:00,4.4914820194244,3,versionB_stim.csv,ReadVersion.csv,Read,Read2,CAKE,HAND,Study1,U,104,71,Test,User,-,,Recall,Recall2,4391,planner,36.363636363636,1835,4333,0,0,,1
w467523BR,gs0bocygg9,"Mediated JOLs",1,173,2024-04-17T16:41:59+00:00,4.9753749370575,3,versionB_stim.csv,ReadVersion.csv,Read,Read2,HORSE,TIRE,Study1,M,69,81,Test,User,-,,Recall,Recall2,4863,height,20,2249,4740,0,0,,1
w467523BR,gs0bocygg9,"Mediated JOLs",1,174,2024-04-17T16:42:03+00:00,3.8335769176483,3,versionB_stim.csv,ReadVersion.csv,Read,Read2,CRY,BEER,Study1,M,71,72,Test,User,-,,Recall,Recall2,3735,wedding,18.181818181818,957,3649,0,0,,1
w467523BR,gs0bocygg9,"Mediated JOLs",1,175,2024-04-17T16:42:04+00:00,1.5556590557098,3,versionB_stim.csv,ReadVersion.csv,Read,Read2,WAR,LOUD,Study1,M,63,76,Test,User,-,,Recall,Recall2,1455,loud,100,942,1353,1,1,,1
w467523BR,gs0bocygg9,"Mediated JOLs",1,176,2024-04-17T16:42:06+00:00,2.104364156723,3,versionB_stim.csv,ReadVersion.csv,Read,Read2,ORCHID,FLOWER,Study1,F,89,67,Test,User,-,,Recall,Recall2,2009,flower,100,1014,1871,1,1,,1
w467523BR,gs0bocygg9,"Mediated JOLs",1,177,2024-04-17T16:42:09+00:00,2.7701458930969,3,versionB_stim.csv,ReadVersion.csv,Read,Read2,GIVE,STEAK,Study1,U,93,66,Test,User,-,,Recall,Recall2,2673,away,22.222222222222,1982,2506,0,0,,1
w467523BR,gs0bocygg9,"Mediated JOLs",1,178,2024-04-17T16:42:11+00:00,1.9623029232025,3,versionB_stim.csv,ReadVersion.csv,Read,Read2,HYGIENE,CLEAN,Study1,F,83,95,Test,User,-,,Recall,Recall2,1839,clean,100,1272,1672,1,1,,1
w467523BR,gs0bocygg9,"Mediated JOLs",1,179,2024-04-17T16:42:14+00:00,2.6077401638031,3,versionB_stim.csv,ReadVersion.csv,Read,Read2,MULE,DONKEY,Study1,F,79,80,Test,User,-,,Recall,Recall2,2505,donkey,100,1328,2317,1,1,,1
w467523BR,gs0bocygg9,"Mediated JOLs",1,180,2024-04-17T16:42:16+00:00,2.3289268016815,3,versionB_stim.csv,ReadVersion.csv,Read,Read2,MAZE,PHONE,Study1,U,97,96,Test,User,-,,Recall,Recall2,2225,phone,100,1650,2133,1,1,,1
w467523BR,gs0bocygg9,"Mediated JOLs",1,181,2024-04-17T16:42:19+00:00,3.3553910255432,3,versionB_stim.csv,ReadVersion.csv,Read,Read2,ROOT,PLANT,Study1,F,80,91,Test,User,-,,Recall,Recall2,3249,beer,0,2487,3123,0,0,,1
w467523BR,gs0bocygg9,"Mediated JOLs",1,182,2024-04-17T16:42:22+00:00,2.4123051166534,3,versionB_stim.csv,ReadVersion.csv,Read,Read2,SOON,BELT,Study1,U,101,78,Test,User,-,,Recall,Recall2,2309,after,22.222222222222,1658,2231,0,0,,1
w467523BR,gs0bocygg9,"Mediated JOLs",1,183,2024-04-17T16:42:27+00:00,5.3173069953918,3,versionB_stim.csv,ReadVersion.csv,Read,Read2,MIRROR,MAROON,Study1,U,91,94,Test,User,-,,Recall,Recall2,5211,marathon,71.428571428571,3200,5019,0,0,,1
w467523BR,gs0bocygg9,"Mediated JOLs",1,184,2024-04-17T16:42:30+00:00,2.8748919963837,3,versionB_stim.csv,ReadVersion.csv,Read,Read2,FUZZY,BANG,Study1,U,105,69,Test,User,-,,Recall,Recall2,2760,fake,25,2299,2619,0,0,,1
w467523BR,gs0bocygg9,"Mediated JOLs",1,185,2024-04-17T16:42:32+00:00,1.9304358959198,3,versionB_stim.csv,ReadVersion.csv,Read,Read2,LITTER,TRASH,Study1,F,76,87,Test,User,-,,Recall,Recall2,1832,trash,100,1069,1674,1,1,,1
w467523BR,gs0bocygg9,"Mediated JOLs",1,186,2024-04-17T16:42:37+00:00,4.7815010547638,3,versionB_stim.csv,ReadVersion.csv,Read,Read2,WAGE,MONEY,Study1,F,77,83,Test,User,-,,Recall,Recall2,4681,money,100,4085,4517,1,1,,1
w467523BR,gs0bocygg9,"Mediated JOLs",1,187,2024-04-17T16:42:39+00:00,2.0597009658813,3,versionB_stim.csv,ReadVersion.csv,Read,Read2,BEACH,SQUARE,Study1,M,62,73,Test,User,-,,Recall,Recall2,1943,sand,40,1460,1833,0,0,,1
w467523BR,gs0bocygg9,"Mediated JOLs",1,188,2024-04-17T16:42:42+00:00,3.4252901077271,3,versionB_stim.csv,ReadVersion.csv,Read,Read2,LISTEN,FICTION,Study1,U,99,100,Test,User,-,,Recall,Recall2,3325,take,18.181818181818,2860,3220,0,0,,1
w467523BR,gs0bocygg9,"Mediated JOLs",1,189,2024-04-17T16:42:46+00:00,3.395495891571,3,versionB_stim.csv,ReadVersion.csv,Read,Read2,CIRCLE,FUN,Study1,M,68,97,Test,User,-,,Recall,Recall2,3290,,0,-1,-1,0,0,,1
w467523BR,gs0bocygg9,"Mediated JOLs",1,190,2024-04-17T16:42:50+00:00,3.9467811584473,3,versionB_stim.csv,ReadVersion.csv,Read,Read2,KEYS,ROD,Study1,U,100,84,Test,User,-,,Recall,Recall2,3839,,0,-1,-1,0,0,,1
w467523BR,gs0bocygg9,"Mediated JOLs",1,191,2024-04-17T16:42:56+00:00,6.1095077991486,3,versionB_stim.csv,ReadVersion.csv,Read,Read2,STRETCH,CLOTH,Study1,U,92,101,Test,User,-,,Recall,Recall2,6009,sit,25,5639,5874,0,0,,1
w467523BR,gs0bocygg9,"Mediated JOLs",1,192,2024-04-17T16:42:58+00:00,1.8439819812775,3,versionB_stim.csv,ReadVersion.csv,Read,Read2,NAP,SLEEP,Study1,F,84,86,Test,User,-,,Recall,Recall2,1739,sleep,100,1052,1542,1,1,,1
w467523BR,gs0bocygg9,"Mediated JOLs",1,193,2024-04-17T16:43:00+00:00,2.8313791751862,3,versionB_stim.csv,ReadVersion.csv,Read,Read2,TEMPERATURE,MORNING,Study1,U,103,77,Test,User,-,,Recall,Recall2,2733,morning,100,1995,2625,1,1,,1
w467523BR,gs0bocygg9,"Mediated JOLs",1,194,2024-04-17T16:43:05+00:00,4.4660890102386,3,versionB_stim.csv,ReadVersion.csv,Read,Read2,SCALP,HEAD,Study1,F,78,63,Test,User,-,,Recall,Recall2,4356,head,100,1954,3480,1,1,,1
w467523BR,gs0bocygg9,"Mediated JOLs",1,195,2024-04-17T16:43:49+00:00,43.836957931519,3,versionB_stim.csv,ReadVersion.csv,Read,Read2,CREDIT,CARD,Study1,F,88,68,Test,User,-,,Recall,Recall2,43728,card,100,43189,43639,1,1,,0.337
w467523BR,gs0bocygg9,"Mediated JOLs",1,196,2024-04-17T16:43:52+00:00,3.3424088954926,3,versionB_stim.csv,ReadVersion.csv,Read,Read2,LION,FLAG,Study1,M,61,79,Test,User,-,,Recall,Recall2,3237,flag,100,2069,3069,1,1,,1
w467523BR,gs0bocygg9,"Mediated JOLs",1,197,2024-04-17T16:43:55+00:00,2.5308330059052,3,versionB_stim.csv,ReadVersion.csv,Read,Read2,WORD,SENTENCE,Study1,F,82,89,Test,User,-,,Recall,Recall2,2432,wise,33.333333333333,1822,2314,0,0,,1
w467523BR,gs0bocygg9,"Mediated JOLs",1,198,2024-04-17T16:43:57+00:00,2.6001970767975,3,versionB_stim.csv,ReadVersion.csv,Read,Read2,WEDDING,HAND,Study1,M,72,64,Test,User,-,,Recall,Recall2,2492,money,22.222222222222,1869,2336,0,0,,1
w467523BR,gs0bocygg9,"Mediated JOLs",1,199,2024-04-17T16:44:02+00:00,4.9657790660858,3,versionB_stim.csv,ReadVersion.csv,Read,Read2,ROUGH,WORM,Study1,M,65,85,Test,User,-,,Recall,Recall2,4867,take,0,1158,4747,0,0,,1
w467523BR,gs0bocygg9,"Mediated JOLs",1,200,2024-04-17T16:44:05+00:00,2.7222640514374,3,versionB_stim.csv,ReadVersion.csv,Read,Read2,BIRTHDAY,APPLE,Study1,M,64,99,Test,User,-,,Recall,Recall2,2620,cake,44.444444444444,2037,2467,0,0,,1
w467523BR,gs0bocygg9,"Mediated JOLs",1,201,2024-04-17T16:44:06+00:00,1.5244488716125,3,versionB_stim.csv,ReadVersion.csv,Read,Read2,SWAN,BIRD,Study1,F,81,104,Test,User,-,,Recall,Recall2,1423,song,0,1030,1329,0,0,,1
w467523BR,gs0bocygg9,"Mediated JOLs",1,202,2024-04-17T16:44:10+00:00,3.6235990524292,3,versionB_stim.csv,ReadVersion.csv,Read,Read2,DAY,BLACK,Study1,M,73,75,Test,User,-,,Recall,Recall2,3515,moon,0,2913,3355,0,0,,1
w467523BR,gs0bocygg9,"Mediated JOLs",1,203,2024-04-17T16:44:12+00:00,2.4677929878235,3,versionB_stim.csv,ReadVersion.csv,Read,Read2,SIP,DRINK,Study1,F,87,74,Test,User,-,,Recall,Recall2,2356,drink,100,1643,2170,1,1,,1
w467523BR,gs0bocygg9,"Mediated JOLs",1,204,2024-04-17T16:44:15+00:00,2.2971749305725,3,versionB_stim.csv,ReadVersion.csv,Read,Read2,TREE,PANCAKES,Study1,M,66,93,Test,User,-,,Recall,Recall2,2196,branch,42.857142857143,1280,2040,0,0,,1
w467523BR,gs0bocygg9,"Mediated JOLs",1,205,2024-04-17T16:44:18+00:00,3.706248998642,3,versionB_stim.csv,ReadVersion.csv,Read,Read2,CRACKLE,ELECTION,Study1,U,94,105,Test,User,-,,Recall,Recall2,3604,sizzle,28.571428571429,2809,3503,0,0,,1
w467523BR,gs0bocygg9,"Mediated JOLs",1,206,2024-04-17T16:44:21+00:00,2.2809131145477,3,versionB_stim.csv,ReadVersion.csv,Read,Read2,AFFECTION,LOVE,Study1,F,86,103,Test,User,-,,Recall,Recall2,2179,love,100,1546,2040,1,1,,1
w467523BR,gs0bocygg9,"Mediated JOLs",1,207,2024-04-17T16:44:27+00:00,6.1175210475922,3,versionB_stim.csv,ReadVersion.csv,Read,Read2,TOOTH,COMB,Study1,M,74,82,Test,User,-,,Recall,Recall2,6005,brush,22.222222222222,5332,5858,0,0,,0.839
w467523BR,gs0bocygg9,"Mediated JOLs",1,208,2024-04-17T16:44:39+00:00,12.339849948883,3,versionB_stim.csv,ReadVersion.csv,Read,Read2,BAT,JUMP,Study1,M,67,102,Test,User,-,,Recall,Recall2,12234,dive,0,2427,12131,0,0,,0.597
w467523BR,gs0bocygg9,"Mediated JOLs",1,209,2024-04-17T16:53:59+00:00,559.52809691429,3,versionB_stim.csv,ReadVersion.csv,Read,Read2,VEHICLE,CHARM,Study1,U,95,65,Test,User,-,,Recall,Recall2,559319,farm,66.666666666667,558601,559156,0,0,,0.275
w467523BR,gs0bocygg9,"Mediated JOLs",1,210,2024-04-17T16:54:00+00:00,1.5752351284027,3,versionB_stim.csv,ReadVersion.csv,Read,Read2,HARD,BALL,Study1,M,75,90,Test,User,-,,Recall,Recall2,1476,sof,0,1113,1363,0,0,,1
w467523BR,gs0bocygg9,"Mediated JOLs",1,211,2024-04-17T16:54:02+00:00,1.502112865448,3,versionB_stim.csv,ReadVersion.csv,Read,Read2,,,,,,0,Instruct,User,-,"You have completed this section. Please press Enter.",,Instruct7,1396,,,-1,-1,,,,1
w467523BR,gs0bocygg9,"Mediated JOLs",1,212,2024-04-17T16:54:04+00:00,2.1230840682983,3,versionB_stim.csv,ReadVersion.csv,Read,Read2,,,,,,0,Instruct,User,-,"The following screen will ask you a few questions abour your experience today. You must complete these questions to receive credit.",,Instruct8,2024,,,-1,-1,,,,1
