Username,ID,ExperimentName,Session,Trial,Date,TimeDif,"Condition Number","Stimuli File","Order File","Condition Description","Condition Notes",Stimuli*Cue,Stimuli*Answer,Stimuli*Shuffle,"Stimuli*Stimuli Notes",Stimuli*Value,Procedure*Item,"Procedure*Trial Type","Procedure*Max Time","Procedure*Min Time",Procedure*Text,"Procedure*Procedure Notes",Procedure*Shuffle,Response*RT,Response*Response,Response*Accuracy,Response*RTfirst,Response*RTlast,Response*strictAcc,Response*lenientAcc,Response*focus,Response*JOL,Response*Focus
20343281EA,expveq4piq,"Mediated JOLs",1,1,2024-11-13T16:07:16+00:00,6.1765480041504,2,versionA_stim.csv,JOLVersion.csv,JOL,JOL1,,,,,,0,Instruct,-,5,"In this section, you will be presented with a series of word pairs. Please study each word pair! Your memory will be tested!",Initial_Instruct,Instruct1,6091,,,-1,-1,,,,,1
20343281EA,expveq4piq,"Mediated JOLs",1,2,2024-11-13T16:07:31+00:00,15.498636007309,2,versionA_stim.csv,JOLVersion.csv,JOL,JOL1,,,,,,0,Instruct,-,10,"As you study, you will be asked to rate your ability to remember the second item in the pair if you were only shown the first at test. You will make these ratings using a 0 to 100 Scale.",,Instruct13,15408,,,-1,-1,,,,,1
20343281EA,expveq4piq,"Mediated JOLs",1,3,2024-11-13T16:07:44+00:00,12.351636886597,2,versionA_stim.csv,JOLVersion.csv,JOL,JOL1,,,,,,0,Instruct,-,10,"For example, if you are given the pair CAT - DOG, a rating of 0 indicates that you would not remember DOG at test, while a rating of 100 indicates full certainty that you would remember the word DOG at test.",,Instruct14,12270,,,-1,-1,,,,,1
20343281EA,expveq4piq,"Mediated JOLs",1,4,2024-11-13T16:07:56+00:00,12.65625500679,2,versionA_stim.csv,JOLVersion.csv,JOL,JOL1,,,,,,0,Instruct,-,10,"When making your ratings, it is criticial that you use the full range of the scale. You will be disqualified for only giving ratings of 0 or 100! After making your rating, press Enter to advance to the next pair.",,Instruct15,12575,,,-1,-1,,,,,1
20343281EA,expveq4piq,"Mediated JOLs",1,5,2024-11-13T16:07:59+00:00,2.7078950405121,2,versionA_stim.csv,JOLVersion.csv,JOL,JOL1,,,,,,0,Instruct,User,-,"You will now begin the study. Press Enter when you are ready to begin.",,Instruct16,2621,,,-1,-1,,,,,1
20343281EA,expveq4piq,"Mediated JOLs",1,6,2024-11-13T16:08:16+00:00,16.960009098053,2,versionA_stim.csv,JOLVersion.csv,JOL,JOL1,TREES,GREEN,BUFFER1,Buffer,1,2,JOL,User,-,"How likely are you to correctly recall the second item in the pair?|Type your response on a scale from 0-100 and then press Enter.",Study/JOL,BUFFER,16872,,,14718,15909,,,,88,1
20343281EA,expveq4piq,"Mediated JOLs",1,7,2024-11-13T16:08:27+00:00,11.324826955795,2,versionA_stim.csv,JOLVersion.csv,JOL,JOL1,SPACE,JAM,BUFFER1,Buffer,5,3,JOL,User,-,"How likely are you to correctly recall the second item in the pair?|Type your response on a scale from 0-100 and then press Enter.",Study/JOL,BUFFER,11222,,,10297,10346,,,,50,1
20343281EA,expveq4piq,"Mediated JOLs",1,8,2024-11-13T16:08:47+00:00,19.459447860718,2,versionA_stim.csv,JOLVersion.csv,JOL,JOL1,SCARE,FRIGHT,BUFFER1,Buffer,4,4,JOL,User,-,"How likely are you to correctly recall the second item in the pair?|Type your response on a scale from 0-100 and then press Enter.",Study/JOL,BUFFER,19369,,,17177,17299,,,,44,1
20343281EA,expveq4piq,"Mediated JOLs",1,9,2024-11-13T16:08:51+00:00,4.4649410247803,2,versionA_stim.csv,JOLVersion.csv,JOL,JOL1,PEANUT,BUTTER,BUFFER1,Buffer,3,6,JOL,User,-,"How likely are you to correctly recall the second item in the pair?|Type your response on a scale from 0-100 and then press Enter.",Study/JOL,BUFFER,4366,,,3009,3557,,,,100,1
20343281EA,expveq4piq,"Mediated JOLs",1,10,2024-11-13T16:09:08+00:00,16.718057155609,2,versionA_stim.csv,JOLVersion.csv,JOL,JOL1,PITCHER,CATCHER,BUFFER1,Buffer,2,5,JOL,User,-,"How likely are you to correctly recall the second item in the pair?|Type your response on a scale from 0-100 and then press Enter.",Study/JOL,BUFFER,16602,,,6902,7048,,,,85,1
20343281EA,expveq4piq,"Mediated JOLs",1,11,2024-11-13T16:09:20+00:00,12.38662981987,2,versionA_stim.csv,JOLVersion.csv,JOL,JOL1,CLEAN,HYGIENE,Study1,F,28,9,JOL,User,-,"How likely are you to correctly recall the second item in the pair?|Type your response on a scale from 0-100 and then press Enter.",Study/JOL,"Study Phase",12296,,,11335,11431,,,,60,1
20343281EA,expveq4piq,"Mediated JOLs",1,12,2024-11-13T16:09:35+00:00,14.690519094467,2,versionA_stim.csv,JOLVersion.csv,JOL,JOL1,SQUARE,BEACH,Study1,M,7,19,JOL,User,-,"How likely are you to correctly recall the second item in the pair?|Type your response on a scale from 0-100 and then press Enter.",Study/JOL,"Study Phase",14583,,,13119,13174,,,,40,1
20343281EA,expveq4piq,"Mediated JOLs",1,13,2024-11-13T16:09:40+00:00,4.8072259426117,2,versionA_stim.csv,JOLVersion.csv,JOL,JOL1,HEAD,SCALP,Study1,F,23,11,JOL,User,-,"How likely are you to correctly recall the second item in the pair?|Type your response on a scale from 0-100 and then press Enter.",Study/JOL,"Study Phase",4722,,,3838,3870,,,,70,1
20343281EA,expveq4piq,"Mediated JOLs",1,14,2024-11-13T16:09:49+00:00,9.2244999408722,2,versionA_stim.csv,JOLVersion.csv,JOL,JOL1,HAND,WEDDING,Study1,M,17,34,JOL,User,-,"How likely are you to correctly recall the second item in the pair?|Type your response on a scale from 0-100 and then press Enter.",Study/JOL,"Study Phase",9116,,,7807,7987,,,,77,1
20343281EA,expveq4piq,"Mediated JOLs",1,15,2024-11-13T16:09:59+00:00,10.058402061462,2,versionA_stim.csv,JOLVersion.csv,JOL,JOL1,BLACK,DAY,Study1,M,18,25,JOL,User,-,"How likely are you to correctly recall the second item in the pair?|Type your response on a scale from 0-100 and then press Enter.",Study/JOL,"Study Phase",9972,,,8360,8847,,,,86,1
20343281EA,expveq4piq,"Mediated JOLs",1,16,2024-11-13T16:10:08+00:00,8.2943589687347,2,versionA_stim.csv,JOLVersion.csv,JOL,JOL1,CARD,CREDIT,Study1,F,33,37,JOL,User,-,"How likely are you to correctly recall the second item in the pair?|Type your response on a scale from 0-100 and then press Enter.",Study/JOL,"Study Phase",8199,,,6443,7274,,,,92,1
20343281EA,expveq4piq,"Mediated JOLs",1,17,2024-11-13T16:10:17+00:00,9.3644709587097,2,versionA_stim.csv,JOLVersion.csv,JOL,JOL1,ROD,KEYS,Study1,U,45,12,JOL,User,-,"How likely are you to correctly recall the second item in the pair?|Type your response on a scale from 0-100 and then press Enter.",Study/JOL,"Study Phase",9273,,,5654,8285,,,,68,1
20343281EA,expveq4piq,"Mediated JOLs",1,18,2024-11-13T16:10:24+00:00,6.7677052021027,2,versionA_stim.csv,JOLVersion.csv,JOL,JOL1,COMB,TOOTH,Study1,M,19,48,JOL,User,-,"How likely are you to correctly recall the second item in the pair?|Type your response on a scale from 0-100 and then press Enter.",Study/JOL,"Study Phase",6678,,,5834,5844,,,,60,1
20343281EA,expveq4piq,"Mediated JOLs",1,19,2024-11-13T16:10:37+00:00,13.111793994904,2,versionA_stim.csv,JOLVersion.csv,JOL,JOL1,JUMP,BAT,Study1,M,12,27,JOL,User,-,"How likely are you to correctly recall the second item in the pair?|Type your response on a scale from 0-100 and then press Enter.",Study/JOL,"Study Phase",13022,,,11358,11734,,,,59,1
20343281EA,expveq4piq,"Mediated JOLs",1,20,2024-11-13T16:10:42+00:00,4.8540668487549,2,versionA_stim.csv,JOLVersion.csv,JOL,JOL1,LOVE,AFFECTION,Study1,F,31,29,JOL,User,-,"How likely are you to correctly recall the second item in the pair?|Type your response on a scale from 0-100 and then press Enter.",Study/JOL,"Study Phase",4741,,,2666,3527,,,,97,1
20343281EA,expveq4piq,"Mediated JOLs",1,21,2024-11-13T16:10:53+00:00,11.478024959564,2,versionA_stim.csv,JOLVersion.csv,JOL,JOL1,CHARM,VEHICLE,Study1,U,40,21,JOL,User,-,"How likely are you to correctly recall the second item in the pair?|Type your response on a scale from 0-100 and then press Enter.",Study/JOL,"Study Phase",11388,,,9705,10244,,,,77,1
20343281EA,expveq4piq,"Mediated JOLs",1,22,2024-11-13T16:11:05+00:00,12.400996208191,2,versionA_stim.csv,JOLVersion.csv,JOL,JOL1,CLOTH,STRETCH,Study1,U,37,7,JOL,User,-,"How likely are you to correctly recall the second item in the pair?|Type your response on a scale from 0-100 and then press Enter.",Study/JOL,"Study Phase",12317,,,11256,11511,,,,56,1
20343281EA,expveq4piq,"Mediated JOLs",1,23,2024-11-13T16:11:17+00:00,11.862968921661,2,versionA_stim.csv,JOLVersion.csv,JOL,JOL1,APPLE,BIRTHDAY,Study1,M,9,31,JOL,User,-,"How likely are you to correctly recall the second item in the pair?|Type your response on a scale from 0-100 and then press Enter.",Study/JOL,"Study Phase",11768,,,10345,10930,,,,84,1
20343281EA,expveq4piq,"Mediated JOLs",1,24,2024-11-13T16:11:30+00:00,12.414934873581,2,versionA_stim.csv,JOLVersion.csv,JOL,JOL1,MORNING,TEMPERATURE,Study1,U,48,13,JOL,User,-,"How likely are you to correctly recall the second item in the pair?|Type your response on a scale from 0-100 and then press Enter.",Study/JOL,"Study Phase",12323,,,10139,11079,,,,90,1
20343281EA,expveq4piq,"Mediated JOLs",1,25,2024-11-13T16:11:34+00:00,3.9203841686249,2,versionA_stim.csv,JOLVersion.csv,JOL,JOL1,MONEY,WAGE,Study1,F,22,22,JOL,User,-,"How likely are you to correctly recall the second item in the pair?|Type your response on a scale from 0-100 and then press Enter.",Study/JOL,"Study Phase",3832,,,2839,2912,,,,86,1
20343281EA,expveq4piq,"Mediated JOLs",1,26,2024-11-13T16:11:38+00:00,4.7255609035492,2,versionA_stim.csv,JOLVersion.csv,JOL,JOL1,TRASH,LITTER,Study1,F,21,10,JOL,User,-,"How likely are you to correctly recall the second item in the pair?|Type your response on a scale from 0-100 and then press Enter.",Study/JOL,"Study Phase",4641,,,3514,3634,,,,76,1
20343281EA,expveq4piq,"Mediated JOLs",1,27,2024-11-13T16:11:42+00:00,4.059121131897,2,versionA_stim.csv,JOLVersion.csv,JOL,JOL1,PLANT,ROOT,Study1,F,25,18,JOL,User,-,"How likely are you to correctly recall the second item in the pair?|Type your response on a scale from 0-100 and then press Enter.",Study/JOL,"Study Phase",3981,,,2917,2998,,,,67,1
20343281EA,expveq4piq,"Mediated JOLs",1,28,2024-11-13T16:11:50+00:00,7.2238838672638,2,versionA_stim.csv,JOLVersion.csv,JOL,JOL1,DONKEY,MULE,Study1,F,24,32,JOL,User,-,"How likely are you to correctly recall the second item in the pair?|Type your response on a scale from 0-100 and then press Enter.",Study/JOL,"Study Phase",7133,,,5821,6159,,,,78,1
20343281EA,expveq4piq,"Mediated JOLs",1,29,2024-11-13T16:11:59+00:00,9.4910559654236,2,versionA_stim.csv,JOLVersion.csv,JOL,JOL1,TIRE,HORSE,Study1,M,14,15,JOL,User,-,"How likely are you to correctly recall the second item in the pair?|Type your response on a scale from 0-100 and then press Enter.",Study/JOL,"Study Phase",9403,,,6739,8524,,,,66,1
20343281EA,expveq4piq,"Mediated JOLs",1,30,2024-11-13T16:12:04+00:00,5.1362571716309,2,versionA_stim.csv,JOLVersion.csv,JOL,JOL1,SHAKE,SHELL,Study1,U,43,50,JOL,User,-,"How likely are you to correctly recall the second item in the pair?|Type your response on a scale from 0-100 and then press Enter.",Study/JOL,"Study Phase",5056,,,3596,4146,,,,56,1
20343281EA,expveq4piq,"Mediated JOLs",1,31,2024-11-13T16:12:11+00:00,6.3600399494171,2,versionA_stim.csv,JOLVersion.csv,JOL,JOL1,ELECTION,CRACKLE,Study1,U,39,28,JOL,User,-,"How likely are you to correctly recall the second item in the pair?|Type your response on a scale from 0-100 and then press Enter.",Study/JOL,"Study Phase",6266,,,5375,5434,,,,67,1
20343281EA,expveq4piq,"Mediated JOLs",1,32,2024-11-13T16:12:18+00:00,7.5330579280853,2,versionA_stim.csv,JOLVersion.csv,JOL,JOL1,BANG,FUZZY,Study1,U,50,35,JOL,User,-,"How likely are you to correctly recall the second item in the pair?|Type your response on a scale from 0-100 and then press Enter.",Study/JOL,"Study Phase",7454,,,6423,6664,,,,45,1
20343281EA,expveq4piq,"Mediated JOLs",1,33,2024-11-13T16:12:25+00:00,6.5171909332275,2,versionA_stim.csv,JOLVersion.csv,JOL,JOL1,RUG,CEILING,Study1,M,15,41,JOL,User,-,"How likely are you to correctly recall the second item in the pair?|Type your response on a scale from 0-100 and then press Enter.",Study/JOL,"Study Phase",6427,,,5366,5425,,,,78,1
20343281EA,expveq4piq,"Mediated JOLs",1,34,2024-11-13T16:12:30+00:00,5.4265360832214,2,versionA_stim.csv,JOLVersion.csv,JOL,JOL1,FISH,TUNA,Study1,F,35,26,JOL,User,-,"How likely are you to correctly recall the second item in the pair?|Type your response on a scale from 0-100 and then press Enter.",Study/JOL,"Study Phase",5334,,,2172,4421,,,,96,1
20343281EA,expveq4piq,"Mediated JOLs",1,35,2024-11-13T16:12:44+00:00,13.601066112518,2,versionA_stim.csv,JOLVersion.csv,JOL,JOL1,BIRD,SWAN,Study1,F,26,20,JOL,User,-,"How likely are you to correctly recall the second item in the pair?|Type your response on a scale from 0-100 and then press Enter.",Study/JOL,"Study Phase",13522,,,11854,12203,,,,65,1
20343281EA,expveq4piq,"Mediated JOLs",1,36,2024-11-13T16:12:51+00:00,6.9968137741089,2,versionA_stim.csv,JOLVersion.csv,JOL,JOL1,BALL,HARD,Study1,M,20,43,JOL,User,-,"How likely are you to correctly recall the second item in the pair?|Type your response on a scale from 0-100 and then press Enter.",Study/JOL,"Study Phase",6904,,,4432,5894,,,,98,1
20343281EA,expveq4piq,"Mediated JOLs",1,37,2024-11-13T16:13:03+00:00,11.797899007797,2,versionA_stim.csv,JOLVersion.csv,JOL,JOL1,FUN,CIRCLE,Study1,M,13,23,JOL,User,-,"How likely are you to correctly recall the second item in the pair?|Type your response on a scale from 0-100 and then press Enter.",Study/JOL,"Study Phase",11712,,,10584,10666,,,,88,1
20343281EA,expveq4piq,"Mediated JOLs",1,38,2024-11-13T16:13:08+00:00,5.8807330131531,2,versionA_stim.csv,JOLVersion.csv,JOL,JOL1,LOUD,WAR,Study1,M,8,44,JOL,User,-,"How likely are you to correctly recall the second item in the pair?|Type your response on a scale from 0-100 and then press Enter.",Study/JOL,"Study Phase",5774,,,4706,4823,,,,87,1
20343281EA,expveq4piq,"Mediated JOLs",1,39,2024-11-13T16:13:25+00:00,16.17737698555,2,versionA_stim.csv,JOLVersion.csv,JOL,JOL1,MAROON,MIRROR,Study1,U,36,42,JOL,User,-,"How likely are you to correctly recall the second item in the pair?|Type your response on a scale from 0-100 and then press Enter.",Study/JOL,"Study Phase",16088,,,15096,15314,,,,66,1
20343281EA,expveq4piq,"Mediated JOLs",1,40,2024-11-13T16:13:32+00:00,7.5763921737671,2,versionA_stim.csv,JOLVersion.csv,JOL,JOL1,DONKEY,MULE,Study1,F,30,14,JOL,User,-,"How likely are you to correctly recall the second item in the pair?|Type your response on a scale from 0-100 and then press Enter.",Study/JOL,"Study Phase",7485,,,6844,6965,,,,88,1
20343281EA,expveq4piq,"Mediated JOLs",1,41,2024-11-13T16:13:38+00:00,6.0345919132233,2,versionA_stim.csv,JOLVersion.csv,JOL,JOL1,BELT,SOON,Study1,U,46,47,JOL,User,-,"How likely are you to correctly recall the second item in the pair?|Type your response on a scale from 0-100 and then press Enter.",Study/JOL,"Study Phase",5948,,,5174,5297,,,,55,1
20343281EA,expveq4piq,"Mediated JOLs",1,42,2024-11-13T16:13:48+00:00,9.839996099472,2,versionA_stim.csv,JOLVersion.csv,JOL,JOL1,FLOWER,ORCHID,Study1,F,34,17,JOL,User,-,"How likely are you to correctly recall the second item in the pair?|Type your response on a scale from 0-100 and then press Enter.",Study/JOL,"Study Phase",9756,,,9167,9297,,,,66,1
20343281EA,expveq4piq,"Mediated JOLs",1,43,2024-11-13T16:13:52+00:00,3.5241289138794,2,versionA_stim.csv,JOLVersion.csv,JOL,JOL1,SLEEP,NAP,Study1,F,29,49,JOL,User,-,"How likely are you to correctly recall the second item in the pair?|Type your response on a scale from 0-100 and then press Enter.",Study/JOL,"Study Phase",3447,,,2616,2735,,,,99,1
20343281EA,expveq4piq,"Mediated JOLs",1,44,2024-11-13T16:14:05+00:00,13.467200994492,2,versionA_stim.csv,JOLVersion.csv,JOL,JOL1,STEAK,GIVE,Study1,U,38,30,JOL,User,-,"How likely are you to correctly recall the second item in the pair?|Type your response on a scale from 0-100 and then press Enter.",Study/JOL,"Study Phase",13385,,,12483,12704,,,,45,1
20343281EA,expveq4piq,"Mediated JOLs",1,45,2024-11-13T16:14:10+00:00,4.8857979774475,2,versionA_stim.csv,JOLVersion.csv,JOL,JOL1,FICTION,LISTEN,Study1,U,44,16,JOL,User,-,"How likely are you to correctly recall the second item in the pair?|Type your response on a scale from 0-100 and then press Enter.",Study/JOL,"Study Phase",4796,,,4013,4203,,,,56,1
20343281EA,expveq4piq,"Mediated JOLs",1,46,2024-11-13T16:14:18+00:00,7.5751030445099,2,versionA_stim.csv,JOLVersion.csv,JOL,JOL1,PHONE,MAZE,Study1,U,42,24,JOL,User,-,"How likely are you to correctly recall the second item in the pair?|Type your response on a scale from 0-100 and then press Enter.",Study/JOL,"Study Phase",7480,,,6491,6583,,,,56,1
20343281EA,expveq4piq,"Mediated JOLs",1,47,2024-11-13T16:14:24+00:00,6.0535359382629,2,versionA_stim.csv,JOLVersion.csv,JOL,JOL1,KEYS,MEAT,Study1,U,41,46,JOL,User,-,"How likely are you to correctly recall the second item in the pair?|Type your response on a scale from 0-100 and then press Enter.",Study/JOL,"Study Phase",5967,,,4943,5501,,,,33,1
20343281EA,expveq4piq,"Mediated JOLs",1,48,2024-11-13T16:14:33+00:00,9.1985030174255,2,versionA_stim.csv,JOLVersion.csv,JOL,JOL1,SENTENCE,WORD,Study1,F,27,40,JOL,User,-,"How likely are you to correctly recall the second item in the pair?|Type your response on a scale from 0-100 and then press Enter.",Study/JOL,"Study Phase",9115,,,7016,8434,,,,64,1
20343281EA,expveq4piq,"Mediated JOLs",1,49,2024-11-13T16:14:39+00:00,6.5405170917511,2,versionA_stim.csv,JOLVersion.csv,JOL,JOL1,FLAG,LION,Study1,M,6,38,JOL,User,-,"How likely are you to correctly recall the second item in the pair?|Type your response on a scale from 0-100 and then press Enter.",Study/JOL,"Study Phase",6447,,,4623,4765,,,,34,1
20343281EA,expveq4piq,"Mediated JOLs",1,50,2024-11-13T16:14:49+00:00,9.3361139297485,2,versionA_stim.csv,JOLVersion.csv,JOL,JOL1,PANCAKES,TREE,Study1,M,11,36,JOL,User,-,"How likely are you to correctly recall the second item in the pair?|Type your response on a scale from 0-100 and then press Enter.",Study/JOL,"Study Phase",9239,,,8450,8545,,,,64,1
20343281EA,expveq4piq,"Mediated JOLs",1,51,2024-11-13T16:14:57+00:00,8.8157479763031,2,versionA_stim.csv,JOLVersion.csv,JOL,JOL1,WORM,ROUGH,Study1,M,10,39,JOL,User,-,"How likely are you to correctly recall the second item in the pair?|Type your response on a scale from 0-100 and then press Enter.",Study/JOL,"Study Phase",8708,,,7974,8042,,,,45,1
20343281EA,expveq4piq,"Mediated JOLs",1,52,2024-11-13T16:15:04+00:00,6.0792081356049,2,versionA_stim.csv,JOLVersion.csv,JOL,JOL1,BEER,CRY,Study1,M,16,33,JOL,User,-,"How likely are you to correctly recall the second item in the pair?|Type your response on a scale from 0-100 and then press Enter.",Study/JOL,"Study Phase",5951,,,5259,5322,,,,76,1
20343281EA,expveq4piq,"Mediated JOLs",1,53,2024-11-13T16:15:13+00:00,9.577271938324,2,versionA_stim.csv,JOLVersion.csv,JOL,JOL1,TICK,SIGN,Study1,U,47,51,JOL,User,-,"How likely are you to correctly recall the second item in the pair?|Type your response on a scale from 0-100 and then press Enter.",Study/JOL,"Study Phase",9483,,,8932,8993,,,,65,1
20343281EA,expveq4piq,"Mediated JOLs",1,54,2024-11-13T16:15:21+00:00,8.0225179195404,2,versionA_stim.csv,JOLVersion.csv,JOL,JOL1,HAND,CAKE,Study1,U,49,45,JOL,User,-,"How likely are you to correctly recall the second item in the pair?|Type your response on a scale from 0-100 and then press Enter.",Study/JOL,"Study Phase",7929,,,7259,7340,,,,67,1
20343281EA,expveq4piq,"Mediated JOLs",1,55,2024-11-13T16:15:25+00:00,4.217630147934,2,versionA_stim.csv,JOLVersion.csv,JOL,JOL1,DRINK,SIP,Study1,F,32,8,JOL,User,-,"How likely are you to correctly recall the second item in the pair?|Type your response on a scale from 0-100 and then press Enter.",Study/JOL,"Study Phase",4126,,,3492,3614,,,,88,1
20343281EA,expveq4piq,"Mediated JOLs",1,56,2024-11-13T16:15:28+00:00,2.9374089241028,2,versionA_stim.csv,JOLVersion.csv,JOL,JOL1,MONTH,YEAR,BUFFER3,Buffer,57,61,JOL,User,-,"How likely are you to correctly recall the second item in the pair?|Type your response on a scale from 0-100 and then press Enter.",Study/JOL,BUFFER2,2851,,,2282,2415,,,,88,1
20343281EA,expveq4piq,"Mediated JOLs",1,57,2024-11-13T16:15:38+00:00,9.3567509651184,2,versionA_stim.csv,JOLVersion.csv,JOL,JOL1,CARROT,POTATO,BUFFER4,Buffer,106,107,JOL,User,-,"How likely are you to correctly recall the second item in the pair?|Type your response on a scale from 0-100 and then press Enter.",Study/JOL,BUFFER2,9269,,,8667,8777,,,,66,1
20343281EA,expveq4piq,"Mediated JOLs",1,58,2024-11-13T16:15:44+00:00,6.3276898860931,2,versionA_stim.csv,JOLVersion.csv,JOL,JOL1,NOODLE,STRING,BUFFER4,Buffer,107,111,JOL,User,-,"How likely are you to correctly recall the second item in the pair?|Type your response on a scale from 0-100 and then press Enter.",Study/JOL,BUFFER2,6246,,,5565,5653,,,,76,1
20343281EA,expveq4piq,"Mediated JOLs",1,59,2024-11-13T16:15:54+00:00,10.519302129745,2,versionA_stim.csv,JOLVersion.csv,JOL,JOL1,CAMP,ADVENTURE,BUFFER4,Buffer,110,109,JOL,User,-,"How likely are you to correctly recall the second item in the pair?|Type your response on a scale from 0-100 and then press Enter.",Study/JOL,BUFFER2,10438,,,9605,9730,,,,88,1
20343281EA,expveq4piq,"Mediated JOLs",1,60,2024-11-13T16:16:33+00:00,38.994855880737,2,versionA_stim.csv,JOLVersion.csv,JOL,JOL1,SHRIMP,FISH,BUFFER4,Buffer,108,110,JOL,User,-,"How likely are you to correctly recall the second item in the pair?|Type your response on a scale from 0-100 and then press Enter.",Study/JOL,BUFFER2,38908,,,37634,37724,,,,77,1
20343281EA,expveq4piq,"Mediated JOLs",1,61,2024-11-13T16:16:40+00:00,6.0358572006226,2,versionA_stim.csv,JOLVersion.csv,JOL,JOL1,,,,,,0,Instruct,User,-,"You have completed this section. Please press Enter.",Filler_Instruction,Instruct2,5954,,,-1,-1,,,,,1
20343281EA,expveq4piq,"Mediated JOLs",1,62,2024-11-13T16:18:40+00:00,120.15859293938,2,versionA_stim.csv,JOLVersion.csv,JOL,JOL1,,,,,,0,FreeRecall,120,120,"Please list the 50 US states in alphabetical order. The task will automatically advance to the next screen after two minutes.",,Filler1,120003,"Alabama, Alaska, Arizona, Arkansas, California, Colorado, Connecticut, Delaware, Florida, Georgia, Hawaii, Idaho, Illinois",0,36165,118588,0,0,,,0.9
20343281EA,expveq4piq,"Mediated JOLs",1,63,2024-11-13T16:18:51+00:00,10.932824850082,2,versionA_stim.csv,JOLVersion.csv,JOL,JOL1,,,,,,0,Instruct,-,10,"You will now be presented with the first word from each of the previously studied item pairs. Please type the missing word. If you do not know the word, you may guess or press Enter to skip forward to the next pair.",,Instruct3,10847,,,-1,-1,,,,,1
20343281EA,expveq4piq,"Mediated JOLs",1,64,2024-11-13T16:18:54+00:00,2.9658651351929,2,versionA_stim.csv,JOLVersion.csv,JOL,JOL1,DONKEY,MULE,Study1,F,24,32,Test,User,-,,Recall,Recall1,2855,mule,100,1279,1984,1,1,,,1
20343281EA,expveq4piq,"Mediated JOLs",1,65,2024-11-13T16:18:57+00:00,3.4865260124207,2,versionA_stim.csv,JOLVersion.csv,JOL,JOL1,TICK,SIGN,Study1,U,47,51,Test,User,-,,Recall,Recall1,3403,sign,100,2046,2547,1,1,,,1
20343281EA,expveq4piq,"Mediated JOLs",1,66,2024-11-13T16:19:03+00:00,6.1680948734283,2,versionA_stim.csv,JOLVersion.csv,JOL,JOL1,ELECTION,CRACKLE,Study1,U,39,28,Test,User,-,,Recall,Recall1,6074,crackle,100,3847,5163,1,1,,,1
20343281EA,expveq4piq,"Mediated JOLs",1,67,2024-11-13T16:19:08+00:00,4.2696871757507,2,versionA_stim.csv,JOLVersion.csv,JOL,JOL1,FISH,TUNA,Study1,F,35,26,Test,User,-,,Recall,Recall1,4183,shrimp,0,1402,2735,0,0,,,1
20343281EA,expveq4piq,"Mediated JOLs",1,68,2024-11-13T16:19:11+00:00,3.5004029273987,2,versionA_stim.csv,JOLVersion.csv,JOL,JOL1,FICTION,LISTEN,Study1,U,44,16,Test,User,-,,Recall,Recall1,3416,listen,100,1625,2555,1,1,,,1
20343281EA,expveq4piq,"Mediated JOLs",1,69,2024-11-13T16:19:14+00:00,2.8335120677948,2,versionA_stim.csv,JOLVersion.csv,JOL,JOL1,BLACK,DAY,Study1,M,18,25,Test,User,-,,Recall,Recall1,2742,day,100,1282,1854,1,1,,,1
20343281EA,expveq4piq,"Mediated JOLs",1,70,2024-11-13T16:19:17+00:00,3.3287079334259,2,versionA_stim.csv,JOLVersion.csv,JOL,JOL1,FLOWER,ORCHID,Study1,F,34,17,Test,User,-,,Recall,Recall1,3241,orchid,100,1443,2380,1,1,,,1
20343281EA,expveq4piq,"Mediated JOLs",1,71,2024-11-13T16:19:24+00:00,6.8756229877472,2,versionA_stim.csv,JOLVersion.csv,JOL,JOL1,TRASH,LITTER,Study1,F,21,10,Test,User,-,,Recall,Recall1,6787,litter,100,5351,6083,1,1,,,1
20343281EA,expveq4piq,"Mediated JOLs",1,72,2024-11-13T16:19:39+00:00,15.372539043427,2,versionA_stim.csv,JOLVersion.csv,JOL,JOL1,PANCAKES,TREE,Study1,M,11,36,Test,User,-,,Recall,Recall1,15275,tree,100,6580,7162,1,1,,,1
20343281EA,expveq4piq,"Mediated JOLs",1,73,2024-11-13T16:20:10+00:00,30.679547071457,2,versionA_stim.csv,JOLVersion.csv,JOL,JOL1,KEYS,MEAT,Study1,U,41,46,Test,User,-,,Recall,Recall1,30544,rod,0,3633,29032,0,0,,,1
20343281EA,expveq4piq,"Mediated JOLs",1,74,2024-11-13T16:20:13+00:00,3.104110956192,2,versionA_stim.csv,JOLVersion.csv,JOL,JOL1,BELT,SOON,Study1,U,46,47,Test,User,-,,Recall,Recall1,3015,soon,100,1797,2264,1,1,,,1
20343281EA,expveq4piq,"Mediated JOLs",1,75,2024-11-13T16:20:17+00:00,4.2644929885864,2,versionA_stim.csv,JOLVersion.csv,JOL,JOL1,TIRE,HORSE,Study1,M,14,15,Test,User,-,,Recall,Recall1,4170,horse,100,2732,3450,1,1,,,1
20343281EA,expveq4piq,"Mediated JOLs",1,76,2024-11-13T16:20:43+00:00,25.074419021606,2,versionA_stim.csv,JOLVersion.csv,JOL,JOL1,SHAKE,SHELL,Study1,U,43,50,Test,User,-,,Recall,Recall1,24982,drink,0,23436,24055,0,0,,,1
20343281EA,expveq4piq,"Mediated JOLs",1,77,2024-11-13T16:20:46+00:00,3.1548750400543,2,versionA_stim.csv,JOLVersion.csv,JOL,JOL1,CARD,CREDIT,Study1,F,33,37,Test,User,-,,Recall,Recall1,3060,credit,100,1277,2243,1,1,,,1
20343281EA,expveq4piq,"Mediated JOLs",1,78,2024-11-13T16:20:48+00:00,2.6479887962341,2,versionA_stim.csv,JOLVersion.csv,JOL,JOL1,COMB,TOOTH,Study1,M,19,48,Test,User,-,,Recall,Recall1,2555,tooth,100,1340,1847,1,1,,,1
20343281EA,expveq4piq,"Mediated JOLs",1,79,2024-11-13T16:20:51+00:00,2.4734101295471,2,versionA_stim.csv,JOLVersion.csv,JOL,JOL1,SENTENCE,WORD,Study1,F,27,40,Test,User,-,,Recall,Recall1,2386,word,100,1106,1554,1,1,,,1
20343281EA,expveq4piq,"Mediated JOLs",1,80,2024-11-13T16:20:55+00:00,4.534558057785,2,versionA_stim.csv,JOLVersion.csv,JOL,JOL1,HAND,CAKE,Study1,U,49,45,Test,User,-,,Recall,Recall1,4446,wedding,18.181818181818,2772,3744,0,0,,,1
20343281EA,expveq4piq,"Mediated JOLs",1,81,2024-11-13T16:21:02+00:00,6.8544919490814,2,versionA_stim.csv,JOLVersion.csv,JOL,JOL1,APPLE,BIRTHDAY,Study1,M,9,31,Test,User,-,,Recall,Recall1,6756,birthday,100,1869,4582,1,1,,,1
20343281EA,expveq4piq,"Mediated JOLs",1,82,2024-11-13T16:21:07+00:00,4.5632560253143,2,versionA_stim.csv,JOLVersion.csv,JOL,JOL1,MORNING,TEMPERATURE,Study1,U,48,13,Test,User,-,,Recall,Recall1,4475,temperature,100,1868,3714,1,1,,,1
20343281EA,expveq4piq,"Mediated JOLs",1,83,2024-11-13T16:21:10+00:00,3.621917963028,2,versionA_stim.csv,JOLVersion.csv,JOL,JOL1,STEAK,GIVE,Study1,U,38,30,Test,User,-,,Recall,Recall1,3528,give,100,2237,2538,1,1,,,1
20343281EA,expveq4piq,"Mediated JOLs",1,84,2024-11-13T16:21:13+00:00,2.4090929031372,2,versionA_stim.csv,JOLVersion.csv,JOL,JOL1,DRINK,SIP,Study1,F,32,8,Test,User,-,,Recall,Recall1,2332,sip,100,1227,1518,1,1,,,1
20343281EA,expveq4piq,"Mediated JOLs",1,85,2024-11-13T16:21:31+00:00,18.445307016373,2,versionA_stim.csv,JOLVersion.csv,JOL,JOL1,LOVE,AFFECTION,Study1,F,31,29,Test,User,-,,Recall,Recall1,18345,affection,100,1386,3026,1,1,,,0.667
20343281EA,expveq4piq,"Mediated JOLs",1,86,2024-11-13T16:21:35+00:00,3.2850170135498,2,versionA_stim.csv,JOLVersion.csv,JOL,JOL1,LOUD,WAR,Study1,M,8,44,Test,User,-,,Recall,Recall1,3155,war,100,1935,2290,1,1,,,1
20343281EA,expveq4piq,"Mediated JOLs",1,87,2024-11-13T16:21:46+00:00,11.309314966202,2,versionA_stim.csv,JOLVersion.csv,JOL,JOL1,CLEAN,HYGIENE,Study1,F,28,9,Test,User,-,,Recall,Recall1,11226,hygiene,100,2223,5518,1,1,,,0.905
20343281EA,expveq4piq,"Mediated JOLs",1,88,2024-11-13T16:21:49+00:00,2.6733570098877,2,versionA_stim.csv,JOLVersion.csv,JOL,JOL1,BEER,CRY,Study1,M,16,33,Test,User,-,,Recall,Recall1,2591,cry,100,1412,1713,1,1,,,1
20343281EA,expveq4piq,"Mediated JOLs",1,89,2024-11-13T16:21:52+00:00,3.3721160888672,2,versionA_stim.csv,JOLVersion.csv,JOL,JOL1,SQUARE,BEACH,Study1,M,7,19,Test,User,-,,Recall,Recall1,3292,beach,100,1794,2485,1,1,,,1
20343281EA,expveq4piq,"Mediated JOLs",1,90,2024-11-13T16:21:54+00:00,2.5817930698395,2,versionA_stim.csv,JOLVersion.csv,JOL,JOL1,DONKEY,MULE,Study1,F,30,14,Test,User,-,,Recall,Recall1,2493,mule,100,1096,1806,1,1,,,1
20343281EA,expveq4piq,"Mediated JOLs",1,91,2024-11-13T16:21:57+00:00,2.7412497997284,2,versionA_stim.csv,JOLVersion.csv,JOL,JOL1,ROD,KEYS,Study1,U,45,12,Test,User,-,,Recall,Recall1,2632,keys,100,1266,1748,1,1,,,1
20343281EA,expveq4piq,"Mediated JOLs",1,92,2024-11-13T16:22:00+00:00,2.8500061035156,2,versionA_stim.csv,JOLVersion.csv,JOL,JOL1,MAROON,MIRROR,Study1,U,36,42,Test,User,-,,Recall,Recall1,2772,mirror,100,1219,1955,1,1,,,1
20343281EA,expveq4piq,"Mediated JOLs",1,93,2024-11-13T16:22:07+00:00,7.0082809925079,2,versionA_stim.csv,JOLVersion.csv,JOL,JOL1,BANG,FUZZY,Study1,U,50,35,Test,User,-,,Recall,Recall1,6923,fluffy,54.545454545455,3687,4526,0,0,,,1
20343281EA,expveq4piq,"Mediated JOLs",1,94,2024-11-13T16:22:26+00:00,19.262864112854,2,versionA_stim.csv,JOLVersion.csv,JOL,JOL1,PLANT,ROOT,Study1,F,25,18,Test,User,-,,Recall,Recall1,19164,grow,50,15829,16020,0,0,,,1
20343281EA,expveq4piq,"Mediated JOLs",1,95,2024-11-13T16:22:45+00:00,18.950156927109,2,versionA_stim.csv,JOLVersion.csv,JOL,JOL1,HEAD,SCALP,Study1,F,23,11,Test,User,-,,Recall,Recall1,18857,front,0,16772,17901,0,0,,,1
20343281EA,expveq4piq,"Mediated JOLs",1,96,2024-11-13T16:24:12+00:00,86.844163894653,2,versionA_stim.csv,JOLVersion.csv,JOL,JOL1,WORM,ROUGH,Study1,M,10,39,Test,User,-,,Recall,Recall1,86627,danger,18.181818181818,84510,85277,0,0,,,1
20343281EA,expveq4piq,"Mediated JOLs",1,97,2024-11-13T16:24:24+00:00,11.899250984192,2,versionA_stim.csv,JOLVersion.csv,JOL,JOL1,RUG,CEILING,Study1,M,15,41,Test,User,-,,Recall,Recall1,11800,ceiling,100,1944,10782,1,1,,,0.838
20343281EA,expveq4piq,"Mediated JOLs",1,98,2024-11-13T16:25:17+00:00,52.874040126801,2,versionA_stim.csv,JOLVersion.csv,JOL,JOL1,PHONE,MAZE,Study1,U,42,24,Test,User,-,,Recall,Recall1,52732,puzzle,40,49191,51566,0,0,,,0.814
20343281EA,expveq4piq,"Mediated JOLs",1,99,2024-11-13T16:25:21+00:00,4.3047339916229,2,versionA_stim.csv,JOLVersion.csv,JOL,JOL1,HAND,WEDDING,Study1,M,17,34,Test,User,-,,Recall,Recall1,4166,wedding,100,1700,3382,1,1,,,1
20343281EA,expveq4piq,"Mediated JOLs",1,100,2024-11-13T16:25:41+00:00,20.226999044418,2,versionA_stim.csv,JOLVersion.csv,JOL,JOL1,FLAG,LION,Study1,M,6,38,Test,User,-,,Recall,Recall1,20118,shag,0,18574,19219,0,0,,,1
20343281EA,expveq4piq,"Mediated JOLs",1,101,2024-11-13T16:26:30+00:00,48.6099858284,2,versionA_stim.csv,JOLVersion.csv,JOL,JOL1,JUMP,BAT,Study1,M,12,27,Test,User,-,,Recall,Recall1,48476,ring,0,47250,47544,0,0,,,1
20343281EA,expveq4piq,"Mediated JOLs",1,102,2024-11-13T16:26:42+00:00,11.473093986511,2,versionA_stim.csv,JOLVersion.csv,JOL,JOL1,MONEY,WAGE,Study1,F,22,22,Test,User,-,,Recall,Recall1,11380,wage,100,10226,10677,1,1,,,1
20343281EA,expveq4piq,"Mediated JOLs",1,103,2024-11-13T16:26:44+00:00,2.6899330615997,2,versionA_stim.csv,JOLVersion.csv,JOL,JOL1,BALL,HARD,Study1,M,20,43,Test,User,-,,Recall,Recall1,2608,hard,100,1474,2000,1,1,,,1
20343281EA,expveq4piq,"Mediated JOLs",1,104,2024-11-13T16:26:49+00:00,5.2389099597931,2,versionA_stim.csv,JOLVersion.csv,JOL,JOL1,CLOTH,STRETCH,Study1,U,37,7,Test,User,-,,Recall,Recall1,5157,stretch,100,1662,4363,1,1,,,1
20343281EA,expveq4piq,"Mediated JOLs",1,105,2024-11-13T16:26:52+00:00,2.4099080562592,2,versionA_stim.csv,JOLVersion.csv,JOL,JOL1,SLEEP,NAP,Study1,F,29,49,Test,User,-,,Recall,Recall1,2322,nap,100,1197,1518,1,1,,,1
20343281EA,expveq4piq,"Mediated JOLs",1,106,2024-11-13T16:26:59+00:00,7.3897631168365,2,versionA_stim.csv,JOLVersion.csv,JOL,JOL1,FUN,CIRCLE,Study1,M,13,23,Test,User,-,,Recall,Recall1,7294,circle,100,4632,6522,1,1,,,1
20343281EA,expveq4piq,"Mediated JOLs",1,107,2024-11-13T16:27:10+00:00,10.688448905945,2,versionA_stim.csv,JOLVersion.csv,JOL,JOL1,BIRD,SWAN,Study1,F,26,20,Test,User,-,,Recall,Recall1,10598,fly,0,9598,9840,0,0,,,1
20343281EA,expveq4piq,"Mediated JOLs",1,108,2024-11-13T16:27:23+00:00,12.663170099258,2,versionA_stim.csv,JOLVersion.csv,JOL,JOL1,CHARM,VEHICLE,Study1,U,40,21,Test,User,-,,Recall,Recall1,12568,vehicle,100,3060,11278,1,1,,,0.923
20343281EA,expveq4piq,"Mediated JOLs",1,109,2024-11-13T16:27:34+00:00,10.950366020203,2,versionA_stim.csv,JOLVersion.csv,JOL,JOL1,,,,,,0,Instruct,-,10,"You will now be presented with a new set of word pairs. Please study each pair. Remember that your memory will be tested! When finished, press Enter to move to the next pair.",Initial_Instruct,Instruct4,10848,,,-1,-1,,,,,1
20343281EA,expveq4piq,"Mediated JOLs",1,110,2024-11-13T16:27:58+00:00,24.39893579483,2,versionA_stim.csv,JOLVersion.csv,JOL,JOL1,,,,,,0,Instruct,,10,"You will again be asked to rate your ability to remember these items using a 0 to 100 scale. Remember to use the full range of the scale!",,Instruct10,24297,,,-1,-1,,,,,0.859
20343281EA,expveq4piq,"Mediated JOLs",1,111,2024-11-13T16:28:00+00:00,1.5870320796967,2,versionA_stim.csv,JOLVersion.csv,JOL,JOL1,,,,,,0,Instruct,User,-,"Press Enter when you are readty to begin",,Instruct11,1494,,,-1,-1,,,,,1
20343281EA,expveq4piq,"Mediated JOLs",1,112,2024-11-13T16:28:11+00:00,11.483100891113,2,versionA_stim.csv,JOLVersion.csv,JOL,JOL1,GEESE,GOOSE,BUFFER2,Buffer,51,56,JOL,User,-,"How likely are you to correctly recall the second item in the pair?|Type your response on a scale from 0-100 and then press Enter.",Study/JOL,BUFFER2,11394,,,10402,10545,,,,99,0.781
20343281EA,expveq4piq,"Mediated JOLs",1,113,2024-11-13T16:28:23+00:00,12.367862224579,2,versionA_stim.csv,JOLVersion.csv,JOL,JOL1,ICE,FROZEN,BUFFER4,Buffer,109,108,JOL,User,-,"How likely are you to correctly recall the second item in the pair?|Type your response on a scale from 0-100 and then press Enter.",Study/JOL,BUFFER2,12276,,,11310,11465,,,,87,0.719
20343281EA,expveq4piq,"Mediated JOLs",1,114,2024-11-13T16:28:35+00:00,11.483192920685,2,versionA_stim.csv,JOLVersion.csv,JOL,JOL1,TOOL,SHED,BUFFER3,Buffer,58,58,JOL,User,-,"How likely are you to correctly recall the second item in the pair?|Type your response on a scale from 0-100 and then press Enter.",Study/JOL,BUFFER2,11380,,,10219,10419,,,,98,0.872
20343281EA,expveq4piq,"Mediated JOLs",1,115,2024-11-13T16:28:48+00:00,13.042666912079,2,versionA_stim.csv,JOLVersion.csv,JOL,JOL1,OCTOBER,SPOOKY,BUFFER3,Buffer,60,57,JOL,User,-,"How likely are you to correctly recall the second item in the pair?|Type your response on a scale from 0-100 and then press Enter.",Study/JOL,BUFFER2,12956,,,8979,11748,,,,100,0.87
20343281EA,expveq4piq,"Mediated JOLs",1,116,2024-11-13T16:28:59+00:00,11.428320169449,2,versionA_stim.csv,JOLVersion.csv,JOL,JOL1,MALT,CHOCOLATE,BUFFER2,Buffer,53,54,JOL,User,-,"How likely are you to correctly recall the second item in the pair?|Type your response on a scale from 0-100 and then press Enter.",Study/JOL,BUFFER2,11336,,,10135,10389,,,,77,0.767
20343281EA,expveq4piq,"Mediated JOLs",1,117,2024-11-13T16:29:05+00:00,5.2080929279327,2,versionA_stim.csv,JOLVersion.csv,JOL,JOL1,SUMMER,WHITE,Study2,M,61,74,JOL,User,-,"How likely are you to correctly recall the second item in the pair?|Type your response on a scale from 0-100 and then press Enter.",Study/JOL,"Study Phase2",5121,,,3634,3749,,,,88,1
20343281EA,expveq4piq,"Mediated JOLs",1,118,2024-11-13T16:29:16+00:00,11.408269882202,2,versionA_stim.csv,JOLVersion.csv,JOL,JOL1,TRAP,MAN,Study2,M,70,76,JOL,User,-,"How likely are you to correctly recall the second item in the pair?|Type your response on a scale from 0-100 and then press Enter.",Study/JOL,"Study Phase2",11314,,,10265,10404,,,,67,0.742
20343281EA,expveq4piq,"Mediated JOLs",1,119,2024-11-13T16:29:25+00:00,9.3220851421356,2,versionA_stim.csv,JOLVersion.csv,JOL,JOL1,CASH,LEG,Study2,U,105,94,JOL,User,-,"How likely are you to correctly recall the second item in the pair?|Type your response on a scale from 0-100 and then press Enter.",Study/JOL,"Study Phase2",9223,,,7995,8073,,,,55,0.848
20343281EA,expveq4piq,"Mediated JOLs",1,120,2024-11-13T16:29:37+00:00,12.230536937714,2,versionA_stim.csv,JOLVersion.csv,JOL,JOL1,DEATH,BUSINESS,Study2,U,99,99,JOL,User,-,"How likely are you to correctly recall the second item in the pair?|Type your response on a scale from 0-100 and then press Enter.",Study/JOL,"Study Phase2",12126,,,10577,11308,,,,55,0.85
20343281EA,expveq4piq,"Mediated JOLs",1,121,2024-11-13T16:29:50+00:00,12.63823890686,2,versionA_stim.csv,JOLVersion.csv,JOL,JOL1,PUSH,CLUTTER,Study2,U,96,62,JOL,User,-,"How likely are you to correctly recall the second item in the pair?|Type your response on a scale from 0-100 and then press Enter.",Study/JOL,"Study Phase2",12537,,,11410,11557,,,,66,0.857
20343281EA,expveq4piq,"Mediated JOLs",1,122,2024-11-13T16:30:02+00:00,11.704464197159,2,versionA_stim.csv,JOLVersion.csv,JOL,JOL1,BENCH,HORN,Study2,U,98,77,JOL,User,-,"How likely are you to correctly recall the second item in the pair?|Type your response on a scale from 0-100 and then press Enter.",Study/JOL,"Study Phase2",11612,,,8125,8236,,,,55,0.85
20343281EA,expveq4piq,"Mediated JOLs",1,123,2024-11-13T16:30:12+00:00,9.8721799850464,2,versionA_stim.csv,JOLVersion.csv,JOL,JOL1,BRIDGE,WATER,Study2,F,90,84,JOL,User,-,"How likely are you to correctly recall the second item in the pair?|Type your response on a scale from 0-100 and then press Enter.",Study/JOL,"Study Phase2",9791,,,8859,9011,,,,99,0.741
20343281EA,expveq4piq,"Mediated JOLs",1,124,2024-11-13T16:30:24+00:00,12.259528875351,2,versionA_stim.csv,JOLVersion.csv,JOL,JOL1,EYES,TASTE,Study2,M,65,71,JOL,User,-,"How likely are you to correctly recall the second item in the pair?|Type your response on a scale from 0-100 and then press Enter.",Study/JOL,"Study Phase2",12163,,,11206,11315,,,,88,0.838
20343281EA,expveq4piq,"Mediated JOLs",1,125,2024-11-13T16:30:34+00:00,9.9793109893799,2,versionA_stim.csv,JOLVersion.csv,JOL,JOL1,DOCUMENT,PAPER,Study2,F,82,101,JOL,User,-,"How likely are you to correctly recall the second item in the pair?|Type your response on a scale from 0-100 and then press Enter.",Study/JOL,"Study Phase2",9870,,,2139,2293,,,,98,0.8
20343281EA,expveq4piq,"Mediated JOLs",1,126,2024-11-13T16:30:53+00:00,19.333120107651,2,versionA_stim.csv,JOLVersion.csv,JOL,JOL1,WINDOW,HANDLE,Study2,M,74,80,JOL,User,-,"How likely are you to correctly recall the second item in the pair?|Type your response on a scale from 0-100 and then press Enter.",Study/JOL,"Study Phase2",19183,,,17327,17386,,,,65,0.882
20343281EA,expveq4piq,"Mediated JOLs",1,127,2024-11-13T16:31:06+00:00,12.511559963226,2,versionA_stim.csv,JOLVersion.csv,JOL,JOL1,ART,WOLF,Study2,U,93,92,JOL,User,-,"How likely are you to correctly recall the second item in the pair?|Type your response on a scale from 0-100 and then press Enter.",Study/JOL,"Study Phase2",12355,,,10373,11831,,,,55,0.794
20343281EA,expveq4piq,"Mediated JOLs",1,128,2024-11-13T16:31:19+00:00,13.065464019775,2,versionA_stim.csv,JOLVersion.csv,JOL,JOL1,INCENSE,SMELL,Study2,F,83,102,JOL,User,-,"How likely are you to correctly recall the second item in the pair?|Type your response on a scale from 0-100 and then press Enter.",Study/JOL,"Study Phase2",12969,,,12491,12639,,,,98,0.714
20343281EA,expveq4piq,"Mediated JOLs",1,129,2024-11-13T16:31:27+00:00,8.6316978931427,2,versionA_stim.csv,JOLVersion.csv,JOL,JOL1,HEAVY,BIRD,Study2,M,68,66,JOL,User,-,"How likely are you to correctly recall the second item in the pair?|Type your response on a scale from 0-100 and then press Enter.",Study/JOL,"Study Phase2",8540,,,7986,8052,,,,87,0.773
20343281EA,expveq4piq,"Mediated JOLs",1,130,2024-11-13T16:31:41+00:00,13.666952133179,2,versionA_stim.csv,JOLVersion.csv,JOL,JOL1,KING,VASE,Study2,U,91,88,JOL,User,-,"How likely are you to correctly recall the second item in the pair?|Type your response on a scale from 0-100 and then press Enter.",Study/JOL,"Study Phase2",13570,,,13174,13278,,,,77,0.655
20343281EA,expveq4piq,"Mediated JOLs",1,131,2024-11-13T16:31:51+00:00,10.244833946228,2,versionA_stim.csv,JOLVersion.csv,JOL,JOL1,FEUD,FIGHT,Study2,F,86,98,JOL,User,-,"How likely are you to correctly recall the second item in the pair?|Type your response on a scale from 0-100 and then press Enter.",Study/JOL,"Study Phase2",10135,,,9753,9857,,,,88,0.708
20343281EA,expveq4piq,"Mediated JOLs",1,132,2024-11-13T16:32:01+00:00,9.2957448959351,2,versionA_stim.csv,JOLVersion.csv,JOL,JOL1,SOAP,THIRST,Study2,M,67,79,JOL,User,-,"How likely are you to correctly recall the second item in the pair?|Type your response on a scale from 0-100 and then press Enter.",Study/JOL,"Study Phase2",9204,,,8233,8324,,,,77,0.778
20343281EA,expveq4piq,"Mediated JOLs",1,133,2024-11-13T16:32:11+00:00,10.028934001923,2,versionA_stim.csv,JOLVersion.csv,JOL,JOL1,ATTIRE,CLOTHES,Study2,F,79,75,JOL,User,-,"How likely are you to correctly recall the second item in the pair?|Type your response on a scale from 0-100 and then press Enter.",Study/JOL,"Study Phase2",9942,,,8775,8887,,,,99,0.72
20343281EA,expveq4piq,"Mediated JOLs",1,134,2024-11-13T16:32:21+00:00,10.485997200012,2,versionA_stim.csv,JOLVersion.csv,JOL,JOL1,NURSE,COURT,Study2,M,66,64,JOL,User,-,"How likely are you to correctly recall the second item in the pair?|Type your response on a scale from 0-100 and then press Enter.",Study/JOL,"Study Phase2",10384,,,9837,9946,,,,88,0.75
20343281EA,expveq4piq,"Mediated JOLs",1,135,2024-11-13T16:32:34+00:00,12.637647867203,2,versionA_stim.csv,JOLVersion.csv,JOL,JOL1,SUGAR,RIDDLE,Study2,U,95,83,JOL,User,-,"How likely are you to correctly recall the second item in the pair?|Type your response on a scale from 0-100 and then press Enter.",Study/JOL,"Study Phase2",12500,,,12105,12199,,,,77,0.615
20343281EA,expveq4piq,"Mediated JOLs",1,136,2024-11-13T16:32:47+00:00,13.075207948685,2,versionA_stim.csv,JOLVersion.csv,JOL,JOL1,REALITY,WATER,Study2,M,64,67,JOL,User,-,"How likely are you to correctly recall the second item in the pair?|Type your response on a scale from 0-100 and then press Enter.",Study/JOL,"Study Phase2",12970,,,12364,12454,,,,67,0.898
20343281EA,expveq4piq,"Mediated JOLs",1,137,2024-11-13T16:33:03+00:00,15.727704048157,2,versionA_stim.csv,JOLVersion.csv,JOL,JOL1,DIETARY,SACK,Study2,U,97,81,JOL,User,-,"How likely are you to correctly recall the second item in the pair?|Type your response on a scale from 0-100 and then press Enter.",Study/JOL,"Study Phase2",15625,,,15261,15363,,,,88,0.676
20343281EA,expveq4piq,"Mediated JOLs",1,138,2024-11-13T16:33:12+00:00,9.675136089325,2,versionA_stim.csv,JOLVersion.csv,JOL,JOL1,PANTS,DOG,Study2,M,63,73,JOL,User,-,"How likely are you to correctly recall the second item in the pair?|Type your response on a scale from 0-100 and then press Enter.",Study/JOL,"Study Phase2",9566,,,8857,9015,,,,76,0.821
20343281EA,expveq4piq,"Mediated JOLs",1,139,2024-11-13T16:33:30+00:00,17.795930862427,2,versionA_stim.csv,JOLVersion.csv,JOL,JOL1,CACTUS,PLANT,Study2,F,76,96,JOL,User,-,"How likely are you to correctly recall the second item in the pair?|Type your response on a scale from 0-100 and then press Enter.",Study/JOL,"Study Phase2",17687,,,6868,7906,,,,99,0.873
20343281EA,expveq4piq,"Mediated JOLs",1,140,2024-11-13T16:33:38+00:00,7.9511301517487,2,versionA_stim.csv,JOLVersion.csv,JOL,JOL1,GRILL,LEG,Study2,M,72,89,JOL,User,-,"How likely are you to correctly recall the second item in the pair?|Type your response on a scale from 0-100 and then press Enter.",Study/JOL,"Study Phase2",7835,,,7449,7560,,,,88,0.714
20343281EA,expveq4piq,"Mediated JOLs",1,141,2024-11-13T16:33:47+00:00,9.1814119815826,2,versionA_stim.csv,JOLVersion.csv,JOL,JOL1,CHISEL,HAMMER,Study2,F,78,91,JOL,User,-,"How likely are you to correctly recall the second item in the pair?|Type your response on a scale from 0-100 and then press Enter.",Study/JOL,"Study Phase2",9072,,,8646,8781,,,,87,0.76
20343281EA,expveq4piq,"Mediated JOLs",1,142,2024-11-13T16:33:56+00:00,8.7232298851013,2,versionA_stim.csv,JOLVersion.csv,JOL,JOL1,OVEN,WEAVE,Study2,M,71,97,JOL,User,-,"How likely are you to correctly recall the second item in the pair?|Type your response on a scale from 0-100 and then press Enter.",Study/JOL,"Study Phase2",8622,,,8135,8327,,,,77,0.727
20343281EA,expveq4piq,"Mediated JOLs",1,143,2024-11-13T16:34:04+00:00,8.0876340866089,2,versionA_stim.csv,JOLVersion.csv,JOL,JOL1,HAPPY,CAR,Study2,U,92,103,JOL,User,-,"How likely are you to correctly recall the second item in the pair?|Type your response on a scale from 0-100 and then press Enter.",Study/JOL,"Study Phase2",7993,,,7603,7702,,,,99,0.773
20343281EA,expveq4piq,"Mediated JOLs",1,144,2024-11-13T16:34:12+00:00,8.1886749267578,2,versionA_stim.csv,JOLVersion.csv,JOL,JOL1,MIRROR,CHILDREN,Study2,U,104,68,JOL,User,-,"How likely are you to correctly recall the second item in the pair?|Type your response on a scale from 0-100 and then press Enter.",Study/JOL,"Study Phase2",8093,,,7692,7805,,,,88,0.783
20343281EA,expveq4piq,"Mediated JOLs",1,145,2024-11-13T16:34:21+00:00,8.7037310600281,2,versionA_stim.csv,JOLVersion.csv,JOL,JOL1,BLAZE,FIRE,Study2,F,81,78,JOL,User,-,"How likely are you to correctly recall the second item in the pair?|Type your response on a scale from 0-100 and then press Enter.",Study/JOL,"Study Phase2",8599,,,8139,8289,,,,87,0.696
20343281EA,expveq4piq,"Mediated JOLs",1,146,2024-11-13T16:34:35+00:00,13.848387956619,2,versionA_stim.csv,JOLVersion.csv,JOL,JOL1,SCHOOL,SIGN,Study2,M,62,100,JOL,User,-,"How likely are you to correctly recall the second item in the pair?|Type your response on a scale from 0-100 and then press Enter.",Study/JOL,"Study Phase2",13741,,,13046,13395,,,,96,0.88
20343281EA,expveq4piq,"Mediated JOLs",1,147,2024-11-13T16:34:44+00:00,9.2717170715332,2,versionA_stim.csv,JOLVersion.csv,JOL,JOL1,BOTH,OUNCE,Study2,U,102,82,JOL,User,-,"How likely are you to correctly recall the second item in the pair?|Type your response on a scale from 0-100 and then press Enter.",Study/JOL,"Study Phase2",9156,,,8606,8700,,,,69,0.839
20343281EA,expveq4piq,"Mediated JOLs",1,148,2024-11-13T16:34:59+00:00,14.90154504776,2,versionA_stim.csv,JOLVersion.csv,JOL,JOL1,LEAGUE,BASEBALL,Study2,F,84,63,JOL,User,-,"How likely are you to correctly recall the second item in the pair?|Type your response on a scale from 0-100 and then press Enter.",Study/JOL,"Study Phase2",14794,,,14172,14285,,,,99,0.613
20343281EA,expveq4piq,"Mediated JOLs",1,149,2024-11-13T16:35:09+00:00,9.6509218215942,2,versionA_stim.csv,JOLVersion.csv,JOL,JOL1,ARTERY,BRONZE,Study2,U,103,105,JOL,User,-,"How likely are you to correctly recall the second item in the pair?|Type your response on a scale from 0-100 and then press Enter.",Study/JOL,"Study Phase2",9554,,,8926,9054,,,,77,0.739
20343281EA,expveq4piq,"Mediated JOLs",1,150,2024-11-13T16:35:23+00:00,14.557271003723,2,versionA_stim.csv,JOLVersion.csv,JOL,JOL1,STRONG,ACCIDENT,Study2,U,94,93,JOL,User,-,"How likely are you to correctly recall the second item in the pair?|Type your response on a scale from 0-100 and then press Enter.",Study/JOL,"Study Phase2",14450,,,12536,13822,,,,83,0.75
20343281EA,expveq4piq,"Mediated JOLs",1,151,2024-11-13T16:35:31+00:00,7.6027970314026,2,versionA_stim.csv,JOLVersion.csv,JOL,JOL1,WASP,BUG,Study2,F,89,65,JOL,User,-,"How likely are you to correctly recall the second item in the pair?|Type your response on a scale from 0-100 and then press Enter.",Study/JOL,"Study Phase2",7498,,,6682,7042,,,,86,0.826
20343281EA,expveq4piq,"Mediated JOLs",1,152,2024-11-13T16:35:40+00:00,8.8956871032715,2,versionA_stim.csv,JOLVersion.csv,JOL,JOL1,HERD,COW,Study2,F,88,86,JOL,User,-,"How likely are you to correctly recall the second item in the pair?|Type your response on a scale from 0-100 and then press Enter.",Study/JOL,"Study Phase2",8791,,,8024,8358,,,,97,0.76
20343281EA,expveq4piq,"Mediated JOLs",1,153,2024-11-13T16:35:48+00:00,7.905632019043,2,versionA_stim.csv,JOLVersion.csv,JOL,JOL1,CHILL,COLD,Study2,F,87,104,JOL,User,-,"How likely are you to correctly recall the second item in the pair?|Type your response on a scale from 0-100 and then press Enter.",Study/JOL,"Study Phase2",7810,,,7124,7235,,,,77,0.739
20343281EA,expveq4piq,"Mediated JOLs",1,154,2024-11-13T16:35:56+00:00,7.9652028083801,2,versionA_stim.csv,JOLVersion.csv,JOL,JOL1,LEASE,TOIL,Study2,U,101,95,JOL,User,-,"How likely are you to correctly recall the second item in the pair?|Type your response on a scale from 0-100 and then press Enter.",Study/JOL,"Study Phase2",7865,,,7156,7276,,,,99,0.783
20343281EA,expveq4piq,"Mediated JOLs",1,155,2024-11-13T16:36:06+00:00,9.9838290214539,2,versionA_stim.csv,JOLVersion.csv,JOL,JOL1,RAZOR,ARM,Study2,M,75,90,JOL,User,-,"How likely are you to correctly recall the second item in the pair?|Type your response on a scale from 0-100 and then press Enter.",Study/JOL,"Study Phase2",9885,,,9477,9588,,,,88,0.708
20343281EA,expveq4piq,"Mediated JOLs",1,156,2024-11-13T16:36:13+00:00,7.5319690704346,2,versionA_stim.csv,JOLVersion.csv,JOL,JOL1,CHOP,CUT,Study2,F,77,72,JOL,User,-,"How likely are you to correctly recall the second item in the pair?|Type your response on a scale from 0-100 and then press Enter.",Study/JOL,"Study Phase2",7443,,,6779,6999,,,,100,0.75
20343281EA,expveq4piq,"Mediated JOLs",1,157,2024-11-13T16:36:22+00:00,9.0695610046387,2,versionA_stim.csv,JOLVersion.csv,JOL,JOL1,HORNET,STING,Study2,F,85,106,JOL,User,-,"How likely are you to correctly recall the second item in the pair?|Type your response on a scale from 0-100 and then press Enter.",Study/JOL,"Study Phase2",8978,,,8287,8512,,,,100,0.714
20343281EA,expveq4piq,"Mediated JOLs",1,158,2024-11-13T16:36:30+00:00,7.9624590873718,2,versionA_stim.csv,JOLVersion.csv,JOL,JOL1,SICK,HIDE,Study2,U,100,69,JOL,User,-,"How likely are you to correctly recall the second item in the pair?|Type your response on a scale from 0-100 and then press Enter.",Study/JOL,"Study Phase2",7858,,,7190,7309,,,,66,0.739
20343281EA,expveq4piq,"Mediated JOLs",1,159,2024-11-13T16:36:39+00:00,9.1964659690857,2,versionA_stim.csv,JOLVersion.csv,JOL,JOL1,CHERRY,RED,Study2,F,80,85,JOL,User,-,"How likely are you to correctly recall the second item in the pair?|Type your response on a scale from 0-100 and then press Enter.",Study/JOL,"Study Phase2",9108,,,8606,8719,,,,99,0.778
20343281EA,expveq4piq,"Mediated JOLs",1,160,2024-11-13T16:36:50+00:00,10.770030021667,2,versionA_stim.csv,JOLVersion.csv,JOL,JOL1,VALLEY,TOP,Study2,M,73,87,JOL,User,-,"How likely are you to correctly recall the second item in the pair?|Type your response on a scale from 0-100 and then press Enter.",Study/JOL,"Study Phase2",10665,,,9754,10138,,,,86,0.793
20343281EA,expveq4piq,"Mediated JOLs",1,161,2024-11-13T16:37:00+00:00,10.208927869797,2,versionA_stim.csv,JOLVersion.csv,JOL,JOL1,RAKE,PLANT,Study2,M,69,70,JOL,User,-,"How likely are you to correctly recall the second item in the pair?|Type your response on a scale from 0-100 and then press Enter.",Study/JOL,"Study Phase2",10112,,,8920,9549,,,,84,0.818
20343281EA,expveq4piq,"Mediated JOLs",1,162,2024-11-13T16:37:09+00:00,9.1322231292725,2,versionA_stim.csv,JOLVersion.csv,JOL,JOL1,THING,STUFF,BUFFER2,Buffer,55,55,JOL,User,-,"How likely are you to correctly recall the second item in the pair?|Type your response on a scale from 0-100 and then press Enter.",Study/JOL,BUFFER2,9034,,,8659,8735,,,,89,0.862
20343281EA,expveq4piq,"Mediated JOLs",1,163,2024-11-13T16:37:18+00:00,8.8386290073395,2,versionA_stim.csv,JOLVersion.csv,JOL,JOL1,DAYS,WEEKS,BUFFER3,Buffer,56,59,JOL,User,-,"How likely are you to correctly recall the second item in the pair?|Type your response on a scale from 0-100 and then press Enter.",Study/JOL,BUFFER2,8729,,,8184,8419,,,,87,0.778
20343281EA,expveq4piq,"Mediated JOLs",1,164,2024-11-13T16:37:29+00:00,11.102032899857,2,versionA_stim.csv,JOLVersion.csv,JOL,JOL1,SPRING,MARCH,BUFFER3,Buffer,59,60,JOL,User,-,"How likely are you to correctly recall the second item in the pair?|Type your response on a scale from 0-100 and then press Enter.",Study/JOL,BUFFER2,11001,,,10231,10435,,,,100,0.767
20343281EA,expveq4piq,"Mediated JOLs",1,165,2024-11-13T16:37:40+00:00,10.635900020599,2,versionA_stim.csv,JOLVersion.csv,JOL,JOL1,MOON,SPACE,BUFFER2,Buffer,54,52,JOL,User,-,"How likely are you to correctly recall the second item in the pair?|Type your response on a scale from 0-100 and then press Enter.",Study/JOL,BUFFER2,10517,,,9915,10125,,,,100,0.741
20343281EA,expveq4piq,"Mediated JOLs",1,166,2024-11-13T16:37:54+00:00,14.101946115494,2,versionA_stim.csv,JOLVersion.csv,JOL,JOL1,SHERRIF,POLICE,BUFFER2,Buffer,52,53,JOL,User,-,"How likely are you to correctly recall the second item in the pair?|Type your response on a scale from 0-100 and then press Enter.",Study/JOL,BUFFER2,13999,,,13602,13720,,,,88,0.656
20343281EA,expveq4piq,"Mediated JOLs",1,167,2024-11-13T16:37:56+00:00,1.5712039470673,2,versionA_stim.csv,JOLVersion.csv,JOL,JOL1,,,,,,0,Instruct,User,-,"You have completed this section. Please press Enter.",Filler_Instruction,Instruct2,1473,,,-1,-1,,,,,1
20343281EA,expveq4piq,"Mediated JOLs",1,168,2024-11-13T16:39:56+00:00,120.26468992233,2,versionA_stim.csv,JOLVersion.csv,JOL,JOL1,,,,,,0,FreeRecall,120,120,"Please list the 50 US states in alphabetical order. The task will automatically advance to the next screen after two minutes.",,Filler1,120005,"Alabama, Alaska, Arizona, Arkansas, California, Colorado, Delaware, Florida, Georgia, Hawaii, Idaho, Illinois, Indiana, Kansas, Kentucky",0,2226,119689,0,0,,,1
20343281EA,expveq4piq,"Mediated JOLs",1,169,2024-11-13T16:40:06+00:00,10.553208112717,2,versionA_stim.csv,JOLVersion.csv,JOL,JOL1,,,,,,0,Instruct,-,10,"You will now be presented with the first word from each of the previously studied item pairs. Please type the missing word. If you do not know the word, you may guess or press Enter to skip forward to the next pair.",,Instruct3,10452,,,-1,-1,,,,,1
20343281EA,expveq4piq,"Mediated JOLs",1,170,2024-11-13T16:40:16+00:00,9.7985780239105,2,versionA_stim.csv,JOLVersion.csv,JOL,JOL1,SUMMER,WHITE,Study2,M,61,74,Test,User,-,,Recall,Recall2,9700,white,100,8140,8592,1,1,,,0.786
20343281EA,expveq4piq,"Mediated JOLs",1,171,2024-11-13T16:40:20+00:00,4.0944368839264,2,versionA_stim.csv,JOLVersion.csv,JOL,JOL1,FEUD,FIGHT,Study2,F,86,98,Test,User,-,,Recall,Recall2,3992,fight,100,2594,3115,1,1,,,0.9
20343281EA,expveq4piq,"Mediated JOLs",1,172,2024-11-13T16:40:29+00:00,8.5059039592743,2,versionA_stim.csv,JOLVersion.csv,JOL,JOL1,EYES,TASTE,Study2,M,65,71,Test,User,-,,Recall,Recall2,8429,tatse,80,7074,7575,0,1,,,0.828
20343281EA,expveq4piq,"Mediated JOLs",1,173,2024-11-13T16:40:35+00:00,6.4122610092163,2,versionA_stim.csv,JOLVersion.csv,JOL,JOL1,BRIDGE,WATER,Study2,F,90,84,Test,User,-,,Recall,Recall2,6323,water,100,1310,1973,1,1,,,0.833
20343281EA,expveq4piq,"Mediated JOLs",1,174,2024-11-13T16:40:46+00:00,10.536000967026,2,versionA_stim.csv,JOLVersion.csv,JOL,JOL1,DEATH,BUSINESS,Study2,U,99,99,Test,User,-,,Recall,Recall2,10444,business,100,6928,9208,1,1,,,0.868
20343281EA,expveq4piq,"Mediated JOLs",1,175,2024-11-13T16:40:57+00:00,11.393707990646,2,versionA_stim.csv,JOLVersion.csv,JOL,JOL1,CHILL,COLD,Study2,F,87,104,Test,User,-,,Recall,Recall2,11294,cold,100,1381,1806,1,1,,,0.714
20343281EA,expveq4piq,"Mediated JOLs",1,176,2024-11-13T16:41:04+00:00,6.8691551685333,2,versionA_stim.csv,JOLVersion.csv,JOL,JOL1,WINDOW,HANDLE,Study2,M,74,80,Test,User,-,,Recall,Recall2,6772,handle,100,5487,6173,1,1,,,0.81
20343281EA,expveq4piq,"Mediated JOLs",1,177,2024-11-13T16:41:11+00:00,6.6492450237274,2,versionA_stim.csv,JOLVersion.csv,JOL,JOL1,SOAP,THIRST,Study2,M,67,79,Test,User,-,,Recall,Recall2,6554,thirst,100,5140,6043,1,1,,,0.762
20343281EA,expveq4piq,"Mediated JOLs",1,178,2024-11-13T16:41:19+00:00,8.235319852829,2,versionA_stim.csv,JOLVersion.csv,JOL,JOL1,OVEN,WEAVE,Study2,M,71,97,Test,User,-,,Recall,Recall2,8126,weave,100,6705,7501,1,1,,,0.7
20343281EA,expveq4piq,"Mediated JOLs",1,179,2024-11-13T16:41:25+00:00,6.3118679523468,2,versionA_stim.csv,JOLVersion.csv,JOL,JOL1,SICK,HIDE,Study2,U,100,69,Test,User,-,,Recall,Recall2,6219,hide,100,5186,5717,1,1,,,0.81
20343281EA,expveq4piq,"Mediated JOLs",1,180,2024-11-13T16:41:32+00:00,6.3364040851593,2,versionA_stim.csv,JOLVersion.csv,JOL,JOL1,WASP,BUG,Study2,F,89,65,Test,User,-,,Recall,Recall2,6236,bug,100,4978,5263,1,1,,,0.81
20343281EA,expveq4piq,"Mediated JOLs",1,181,2024-11-13T16:41:34+00:00,2.563227891922,2,versionA_stim.csv,JOLVersion.csv,JOL,JOL1,BLAZE,FIRE,Study2,F,81,78,Test,User,-,,Recall,Recall2,2463,fire,100,1544,1920,1,1,,,1
20343281EA,expveq4piq,"Mediated JOLs",1,182,2024-11-13T16:41:38+00:00,3.8054811954498,2,versionA_stim.csv,JOLVersion.csv,JOL,JOL1,LEAGUE,BASEBALL,Study2,F,84,63,Test,User,-,,Recall,Recall2,3716,baseball,100,1509,3054,1,1,,,1
20343281EA,expveq4piq,"Mediated JOLs",1,183,2024-11-13T16:41:46+00:00,7.5126328468323,2,versionA_stim.csv,JOLVersion.csv,JOL,JOL1,HORNET,STING,Study2,F,85,106,Test,User,-,,Recall,Recall2,7423,sting,100,6314,7085,1,1,,,0.684
20343281EA,expveq4piq,"Mediated JOLs",1,184,2024-11-13T16:41:54+00:00,8.3077540397644,2,versionA_stim.csv,JOLVersion.csv,JOL,JOL1,MIRROR,CHILDREN,Study2,U,104,68,Test,User,-,,Recall,Recall2,8211,children,100,5754,7911,1,1,,,0.893
20343281EA,expveq4piq,"Mediated JOLs",1,185,2024-11-13T16:42:09+00:00,14.813930988312,2,versionA_stim.csv,JOLVersion.csv,JOL,JOL1,TRAP,MAN,Study2,M,70,76,Test,User,-,,Recall,Recall2,14710,man,100,13298,13583,1,1,,,0.78
20343281EA,expveq4piq,"Mediated JOLs",1,186,2024-11-13T16:42:11+00:00,2.3717629909515,2,versionA_stim.csv,JOLVersion.csv,JOL,JOL1,CHERRY,RED,Study2,F,80,85,Test,User,-,,Recall,Recall2,2272,red,100,1367,1656,1,1,,,1
20343281EA,expveq4piq,"Mediated JOLs",1,187,2024-11-13T16:42:17+00:00,6.1565511226654,2,versionA_stim.csv,JOLVersion.csv,JOL,JOL1,REALITY,WATER,Study2,M,64,67,Test,User,-,,Recall,Recall2,6056,water,100,5125,5617,1,1,,,0.778
20343281EA,expveq4piq,"Mediated JOLs",1,188,2024-11-13T16:42:23+00:00,5.5761590003967,2,versionA_stim.csv,JOLVersion.csv,JOL,JOL1,GRILL,LEG,Study2,M,72,89,Test,User,-,,Recall,Recall2,5477,leg,100,4757,5167,1,1,,,0.813
20343281EA,expveq4piq,"Mediated JOLs",1,189,2024-11-13T16:42:29+00:00,5.956032037735,2,versionA_stim.csv,JOLVersion.csv,JOL,JOL1,HAPPY,CAR,Study2,U,92,103,Test,User,-,,Recall,Recall2,5854,car,100,5094,5338,1,1,,,0.824
20343281EA,expveq4piq,"Mediated JOLs",1,190,2024-11-13T16:42:31+00:00,2.1691498756409,2,versionA_stim.csv,JOLVersion.csv,JOL,JOL1,CHOP,CUT,Study2,F,77,72,Test,User,-,,Recall,Recall2,2071,cut,100,1217,1590,1,1,,,1
20343281EA,expveq4piq,"Mediated JOLs",1,191,2024-11-13T16:42:33+00:00,2.5204980373383,2,versionA_stim.csv,JOLVersion.csv,JOL,JOL1,RAZOR,ARM,Study2,M,75,90,Test,User,-,,Recall,Recall2,2421,arm,100,1520,1903,1,1,,,1
20343281EA,expveq4piq,"Mediated JOLs",1,192,2024-11-13T16:42:39+00:00,5.7943069934845,2,versionA_stim.csv,JOLVersion.csv,JOL,JOL1,ART,WOLF,Study2,U,93,92,Test,User,-,,Recall,Recall2,5698,wolf,100,4614,5135,1,1,,,0.8
20343281EA,expveq4piq,"Mediated JOLs",1,193,2024-11-13T16:42:48+00:00,9.2273578643799,2,versionA_stim.csv,JOLVersion.csv,JOL,JOL1,CACTUS,PLANT,Study2,F,76,96,Test,User,-,,Recall,Recall2,9124,plant,100,1475,2131,1,1,,,0.76
20343281EA,expveq4piq,"Mediated JOLs",1,194,2024-11-13T16:42:55+00:00,7.0819141864777,2,versionA_stim.csv,JOLVersion.csv,JOL,JOL1,NURSE,COURT,Study2,M,66,64,Test,User,-,,Recall,Recall2,6978,court,100,5906,6574,1,1,,,0.737
20343281EA,expveq4piq,"Mediated JOLs",1,195,2024-11-13T16:43:01+00:00,6.002790927887,2,versionA_stim.csv,JOLVersion.csv,JOL,JOL1,PUSH,CLUTTER,Study2,U,96,62,Test,User,-,,Recall,Recall2,5910,clutter,100,4602,5644,1,1,,,0.833
20343281EA,expveq4piq,"Mediated JOLs",1,196,2024-11-13T16:43:08+00:00,6.6799759864807,2,versionA_stim.csv,JOLVersion.csv,JOL,JOL1,PANTS,DOG,Study2,M,63,73,Test,User,-,,Recall,Recall2,6581,dog,100,5898,6218,1,1,,,0.818
20343281EA,expveq4piq,"Mediated JOLs",1,197,2024-11-13T16:43:15+00:00,6.3906879425049,2,versionA_stim.csv,JOLVersion.csv,JOL,JOL1,KING,VASE,Study2,U,91,88,Test,User,-,,Recall,Recall2,6282,vase,100,3989,5821,1,1,,,0.818
20343281EA,expveq4piq,"Mediated JOLs",1,198,2024-11-13T16:43:22+00:00,7.0217940807343,2,versionA_stim.csv,JOLVersion.csv,JOL,JOL1,STRONG,ACCIDENT,Study2,U,94,93,Test,User,-,,Recall,Recall2,6924,accent,85.714285714286,4701,6135,0,1,,,0.826
20343281EA,expveq4piq,"Mediated JOLs",1,199,2024-11-13T16:43:27+00:00,5.4473550319672,2,versionA_stim.csv,JOLVersion.csv,JOL,JOL1,SCHOOL,SIGN,Study2,M,62,100,Test,User,-,,Recall,Recall2,5347,sign,100,4533,4896,1,1,,,0.733
20343281EA,expveq4piq,"Mediated JOLs",1,200,2024-11-13T16:43:33+00:00,5.9870460033417,2,versionA_stim.csv,JOLVersion.csv,JOL,JOL1,ARTERY,BRONZE,Study2,U,103,105,Test,User,-,,Recall,Recall2,5887,bronze,100,4557,5586,1,1,,,0.722
20343281EA,expveq4piq,"Mediated JOLs",1,201,2024-11-13T16:43:39+00:00,6.0715889930725,2,versionA_stim.csv,JOLVersion.csv,JOL,JOL1,LEASE,TOIL,Study2,U,101,95,Test,User,-,,Recall,Recall2,5969,toil,100,5080,5414,1,1,,,0.833
20343281EA,expveq4piq,"Mediated JOLs",1,202,2024-11-13T16:43:44+00:00,5.3186850547791,2,versionA_stim.csv,JOLVersion.csv,JOL,JOL1,DOCUMENT,PAPER,Study2,F,82,101,Test,User,-,,Recall,Recall2,5223,paper,100,2373,4453,1,1,,,0.96
20343281EA,expveq4piq,"Mediated JOLs",1,203,2024-11-13T16:43:51+00:00,6.5443208217621,2,versionA_stim.csv,JOLVersion.csv,JOL,JOL1,SUGAR,RIDDLE,Study2,U,95,83,Test,User,-,,Recall,Recall2,6442,riddle,100,5045,5773,1,1,,,0.818
20343281EA,expveq4piq,"Mediated JOLs",1,204,2024-11-13T16:43:54+00:00,3.1718080043793,2,versionA_stim.csv,JOLVersion.csv,JOL,JOL1,HERD,COW,Study2,F,88,86,Test,User,-,,Recall,Recall2,3075,cow,100,1404,1719,1,1,,,1
20343281EA,expveq4piq,"Mediated JOLs",1,205,2024-11-13T16:44:01+00:00,7.1066451072693,2,versionA_stim.csv,JOLVersion.csv,JOL,JOL1,RAKE,PLANT,Study2,M,69,70,Test,User,-,,Recall,Recall2,7010,plant,100,2368,3053,1,1,,,0.852
20343281EA,expveq4piq,"Mediated JOLs",1,206,2024-11-13T16:44:10+00:00,8.8196759223938,2,versionA_stim.csv,JOLVersion.csv,JOL,JOL1,CASH,LEG,Study2,U,105,94,Test,User,-,,Recall,Recall2,8708,leg,100,5140,5546,1,1,,,0.862
20343281EA,expveq4piq,"Mediated JOLs",1,207,2024-11-13T16:44:17+00:00,6.6223449707031,2,versionA_stim.csv,JOLVersion.csv,JOL,JOL1,DIETARY,SACK,Study2,U,97,81,Test,User,-,,Recall,Recall2,6514,sack,100,5655,6172,1,1,,,0.8
20343281EA,expveq4piq,"Mediated JOLs",1,208,2024-11-13T16:44:24+00:00,6.9687070846558,2,versionA_stim.csv,JOLVersion.csv,JOL,JOL1,VALLEY,TOP,Study2,M,73,87,Test,User,-,,Recall,Recall2,6876,top,100,6129,6302,1,1,,,0.773
20343281EA,expveq4piq,"Mediated JOLs",1,209,2024-11-13T16:44:32+00:00,8.3260290622711,2,versionA_stim.csv,JOLVersion.csv,JOL,JOL1,ATTIRE,CLOTHES,Study2,F,79,75,Test,User,-,,Recall,Recall2,8240,clothes,100,1955,3728,1,1,,,0.9
20343281EA,expveq4piq,"Mediated JOLs",1,210,2024-11-13T16:44:38+00:00,6.2294130325317,2,versionA_stim.csv,JOLVersion.csv,JOL,JOL1,BENCH,HORN,Study2,U,98,77,Test,User,-,,Recall,Recall2,6127,horn,100,4993,5551,1,1,,,0.842
20343281EA,expveq4piq,"Mediated JOLs",1,211,2024-11-13T16:44:44+00:00,6.2090179920197,2,versionA_stim.csv,JOLVersion.csv,JOL,JOL1,INCENSE,SMELL,Study2,F,83,102,Test,User,-,,Recall,Recall2,6113,smell,100,5147,5698,1,1,,,0.818
20343281EA,expveq4piq,"Mediated JOLs",1,212,2024-11-13T16:44:50+00:00,5.4975378513336,2,versionA_stim.csv,JOLVersion.csv,JOL,JOL1,HEAVY,BIRD,Study2,M,68,66,Test,User,-,,Recall,Recall2,5395,bird,100,4398,4819,1,1,,,0.765
20343281EA,expveq4piq,"Mediated JOLs",1,213,2024-11-13T16:44:53+00:00,2.8935470581055,2,versionA_stim.csv,JOLVersion.csv,JOL,JOL1,CHISEL,HAMMER,Study2,F,78,91,Test,User,-,,Recall,Recall2,2796,hammer,100,1661,2205,1,1,,,1
20343281EA,expveq4piq,"Mediated JOLs",1,214,2024-11-13T16:45:01+00:00,8.5152020454407,2,versionA_stim.csv,JOLVersion.csv,JOL,JOL1,BOTH,OUNCE,Study2,U,102,82,Test,User,-,,Recall,Recall2,8414,ounce,100,4811,5514,1,1,,,0.778
20343281EA,expveq4piq,"Mediated JOLs",1,215,2024-11-13T16:45:04+00:00,2.9754400253296,2,versionA_stim.csv,JOLVersion.csv,JOL,JOL1,,,,,,0,Instruct,User,-,"You have completed this section. Please press Enter.",,Instruct7,2874,,,-1,-1,,,,,1
20343281EA,expveq4piq,"Mediated JOLs",1,216,2024-11-13T16:45:07+00:00,2.3050308227539,2,versionA_stim.csv,JOLVersion.csv,JOL,JOL1,,,,,,0,Instruct,User,-,"The following screen will ask you a few questions abour your experience today. You must complete these questions to receive credit.",,Instruct8,2184,,,-1,-1,,,,,1
