Username,ID,ExperimentName,Session,Trial,Date,TimeDif,"Condition Number","Stimuli File","Order File","Condition Description","Condition Notes",Stimuli*Cue,Stimuli*Answer,Stimuli*Shuffle,"Stimuli*Stimuli Notes",Stimuli*Value,Procedure*Item,"Procedure*Trial Type","Procedure*Max Time","Procedure*Min Time",Procedure*Text,"Procedure*Procedure Notes",Procedure*Shuffle,Response*RT,Response*Response,Response*Accuracy,Response*RTfirst,Response*RTlast,Response*strictAcc,Response*lenientAcc,Response*focus,Response*JOL,Response*Focus
w10164530_bam,ozeuq936g4,"Mediated JOLs",1,1,2024-02-13T02:03:58+00:00,5.2396240234375,2,versionA_stim.csv,JOLVersion.csv,JOL,JOL1,,,,,,0,Instruct,-,5,"In this section, you will be presented with a series of word pairs. Please study each word pair! Your memory will be tested!",Initial_Instruct,Instruct1,5118,,,-1,-1,,,,,1
w10164530_bam,ozeuq936g4,"Mediated JOLs",1,2,2024-02-13T02:04:17+00:00,19.365220785141,2,versionA_stim.csv,JOLVersion.csv,JOL,JOL1,,,,,,0,Instruct,-,10,"As you study, you will be asked to rate your ability to remember the second item in the pair if you were only shown the first at test. You will make these ratings using a 0 to 100 Scale.",,Instruct13,11008,,,-1,-1,,,,,1
w10164530_bam,ozeuq936g4,"Mediated JOLs",1,3,2024-02-13T02:04:34+00:00,16.539627075195,2,versionA_stim.csv,JOLVersion.csv,JOL,JOL1,,,,,,0,Instruct,-,10,"For example, if you are given the pair CAT - DOG, a rating of 0 indicates that you would not remember DOG at test, while a rating of 100 indicates full certainty that you would remember the word DOG at test.",,Instruct14,13454,,,-1,-1,,,,,1
w10164530_bam,ozeuq936g4,"Mediated JOLs",1,4,2024-02-13T02:04:46+00:00,12.209612131119,2,versionA_stim.csv,JOLVersion.csv,JOL,JOL1,,,,,,0,Instruct,-,10,"When making your ratings, it is criticial that you use the full range of the scale. You will be disqualified for only giving ratings of 0 or 100! After making your rating, press Enter to advance to the next pair.",,Instruct15,10079,,,-1,-1,,,,,1
w10164530_bam,ozeuq936g4,"Mediated JOLs",1,5,2024-02-13T02:04:48+00:00,1.8544738292694,2,versionA_stim.csv,JOLVersion.csv,JOL,JOL1,,,,,,0,Instruct,User,-,"You will now begin the study. Press Enter when you are ready to begin.",,Instruct16,1696,,,-1,-1,,,,,1
w10164530_bam,ozeuq936g4,"Mediated JOLs",1,6,2024-02-13T02:04:56+00:00,8.1111371517181,2,versionA_stim.csv,JOLVersion.csv,JOL,JOL1,SCARE,FRIGHT,BUFFER1,Buffer,4,4,JOL,User,-,"How likely are you to correctly recall the second item in the pair?|Type your response on a scale from 0-100 and then press Enter.",Study/JOL,BUFFER,7926,,,7492,7492,,,,0,1
w10164530_bam,ozeuq936g4,"Mediated JOLs",1,7,2024-02-13T02:04:57+00:00,1.2263188362122,2,versionA_stim.csv,JOLVersion.csv,JOL,JOL1,TREES,GREEN,BUFFER1,Buffer,1,6,JOL,User,-,"How likely are you to correctly recall the second item in the pair?|Type your response on a scale from 0-100 and then press Enter.",Study/JOL,BUFFER,1085,,,566,566,,,,0,1
w10164530_bam,ozeuq936g4,"Mediated JOLs",1,8,2024-02-13T02:04:58+00:00,0.91576600074768,2,versionA_stim.csv,JOLVersion.csv,JOL,JOL1,PEANUT,BUTTER,BUFFER1,Buffer,3,2,JOL,User,-,"How likely are you to correctly recall the second item in the pair?|Type your response on a scale from 0-100 and then press Enter.",Study/JOL,BUFFER,775,,,331,331,,,,0,1
w10164530_bam,ozeuq936g4,"Mediated JOLs",1,9,2024-02-13T02:04:59+00:00,0.979572057724,2,versionA_stim.csv,JOLVersion.csv,JOL,JOL1,SPACE,JAM,BUFFER1,Buffer,5,3,JOL,User,-,"How likely are you to correctly recall the second item in the pair?|Type your response on a scale from 0-100 and then press Enter.",Study/JOL,BUFFER,839,,,400,400,,,,0,1
w10164530_bam,ozeuq936g4,"Mediated JOLs",1,10,2024-02-13T02:05:00+00:00,0.87727403640747,2,versionA_stim.csv,JOLVersion.csv,JOL,JOL1,PITCHER,CATCHER,BUFFER1,Buffer,2,5,JOL,User,-,"How likely are you to correctly recall the second item in the pair?|Type your response on a scale from 0-100 and then press Enter.",Study/JOL,BUFFER,747,,,275,275,,,,0,1
w10164530_bam,ozeuq936g4,"Mediated JOLs",1,11,2024-02-13T02:05:01+00:00,0.81081199645996,2,versionA_stim.csv,JOLVersion.csv,JOL,JOL1,MAZE,PHONE,Study1,U,42,27,JOL,User,-,"How likely are you to correctly recall the second item in the pair?|Type your response on a scale from 0-100 and then press Enter.",Study/JOL,"Study Phase",667,,,155,155,,,,0,1
w10164530_bam,ozeuq936g4,"Mediated JOLs",1,12,2024-02-13T02:05:02+00:00,0.69838500022888,2,versionA_stim.csv,JOLVersion.csv,JOL,JOL1,SIGN,TICK,Study1,U,47,30,JOL,User,-,"How likely are you to correctly recall the second item in the pair?|Type your response on a scale from 0-100 and then press Enter.",Study/JOL,"Study Phase",554,,,160,160,,,,0,1
w10164530_bam,ozeuq936g4,"Mediated JOLs",1,13,2024-02-13T02:05:02+00:00,0.70391988754272,2,versionA_stim.csv,JOLVersion.csv,JOL,JOL1,CEILING,CARPET,Study1,M,15,13,JOL,User,-,"How likely are you to correctly recall the second item in the pair?|Type your response on a scale from 0-100 and then press Enter.",Study/JOL,"Study Phase",562,,,134,134,,,,0,1
w10164530_bam,ozeuq936g4,"Mediated JOLs",1,14,2024-02-13T02:05:03+00:00,0.57090306282043,2,versionA_stim.csv,JOLVersion.csv,JOL,JOL1,ORCHID,FLOWER,Study1,F,34,28,JOL,User,-,"How likely are you to correctly recall the second item in the pair?|Type your response on a scale from 0-100 and then press Enter.",Study/JOL,"Study Phase",436,,,-1,-1,,,,,1
w10164530_bam,ozeuq936g4,"Mediated JOLs",1,15,2024-02-13T02:05:03+00:00,0.55837512016296,2,versionA_stim.csv,JOLVersion.csv,JOL,JOL1,TUNA,FISH,Study1,F,35,37,JOL,User,-,"How likely are you to correctly recall the second item in the pair?|Type your response on a scale from 0-100 and then press Enter.",Study/JOL,"Study Phase",433,,,-1,-1,,,,,1
w10164530_bam,ozeuq936g4,"Mediated JOLs",1,16,2024-02-13T02:05:04+00:00,0.52779793739319,2,versionA_stim.csv,JOLVersion.csv,JOL,JOL1,MEAT,KEYS,Study1,U,41,34,JOL,User,-,"How likely are you to correctly recall the second item in the pair?|Type your response on a scale from 0-100 and then press Enter.",Study/JOL,"Study Phase",374,,,-1,-1,,,,,1
w10164530_bam,ozeuq936g4,"Mediated JOLs",1,17,2024-02-13T02:05:04+00:00,0.45648288726807,2,versionA_stim.csv,JOLVersion.csv,JOL,JOL1,WAR,QUIET,Study1,M,8,23,JOL,User,-,"How likely are you to correctly recall the second item in the pair?|Type your response on a scale from 0-100 and then press Enter.",Study/JOL,"Study Phase",310,,,-1,-1,,,,,1
w10164530_bam,ozeuq936g4,"Mediated JOLs",1,18,2024-02-13T02:05:05+00:00,0.53233408927917,2,versionA_stim.csv,JOLVersion.csv,JOL,JOL1,CREDIT,CARD,Study1,F,33,43,JOL,User,-,"How likely are you to correctly recall the second item in the pair?|Type your response on a scale from 0-100 and then press Enter.",Study/JOL,"Study Phase",403,,,98,98,,,,0,1
w10164530_bam,ozeuq936g4,"Mediated JOLs",1,19,2024-02-13T02:05:05+00:00,0.41271805763245,2,versionA_stim.csv,JOLVersion.csv,JOL,JOL1,CIRCLE,DANCE,Study1,M,13,24,JOL,User,-,"How likely are you to correctly recall the second item in the pair?|Type your response on a scale from 0-100 and then press Enter.",Study/JOL,"Study Phase",287,,,150,150,,,,,1
w10164530_bam,ozeuq936g4,"Mediated JOLs",1,20,2024-02-13T02:05:06+00:00,0.707927942276,2,versionA_stim.csv,JOLVersion.csv,JOL,JOL1,ROUGH,SILK,Study1,M,10,51,JOL,User,-,"How likely are you to correctly recall the second item in the pair?|Type your response on a scale from 0-100 and then press Enter.",Study/JOL,"Study Phase",584,,,222,222,,,,0,1
w10164530_bam,ozeuq936g4,"Mediated JOLs",1,21,2024-02-13T02:05:06+00:00,0.35728907585144,2,versionA_stim.csv,JOLVersion.csv,JOL,JOL1,LISTEN,FICTION,Study1,U,44,49,JOL,User,-,"How likely are you to correctly recall the second item in the pair?|Type your response on a scale from 0-100 and then press Enter.",Study/JOL,"Study Phase",205,,,-1,-1,,,,,1
w10164530_bam,ozeuq936g4,"Mediated JOLs",1,22,2024-02-13T02:05:07+00:00,0.38856792449951,2,versionA_stim.csv,JOLVersion.csv,JOL,JOL1,STRETCH,CLOTH,Study1,U,37,8,JOL,User,-,"How likely are you to correctly recall the second item in the pair?|Type your response on a scale from 0-100 and then press Enter.",Study/JOL,"Study Phase",261,,,90,90,,,,0,1
w10164530_bam,ozeuq936g4,"Mediated JOLs",1,23,2024-02-13T02:05:07+00:00,0.38909697532654,2,versionA_stim.csv,JOLVersion.csv,JOL,JOL1,AFFECTION,LOVE,Study1,F,31,40,JOL,User,-,"How likely are you to correctly recall the second item in the pair?|Type your response on a scale from 0-100 and then press Enter.",Study/JOL,"Study Phase",274,,,118,118,,,,0,1
w10164530_bam,ozeuq936g4,"Mediated JOLs",1,24,2024-02-13T02:05:08+00:00,0.30837106704712,2,versionA_stim.csv,JOLVersion.csv,JOL,JOL1,VEHICLE,CHARM,Study1,U,40,26,JOL,User,-,"How likely are you to correctly recall the second item in the pair?|Type your response on a scale from 0-100 and then press Enter.",Study/JOL,"Study Phase",198,,,83,83,,,,0,1
w10164530_bam,ozeuq936g4,"Mediated JOLs",1,25,2024-02-13T02:05:08+00:00,0.27358198165894,2,versionA_stim.csv,JOLVersion.csv,JOL,JOL1,SHELL,SHAKE,Study1,U,43,9,JOL,User,-,"How likely are you to correctly recall the second item in the pair?|Type your response on a scale from 0-100 and then press Enter.",Study/JOL,"Study Phase",166,,,131,131,,,,0,1
w10164530_bam,ozeuq936g4,"Mediated JOLs",1,26,2024-02-13T02:05:08+00:00,0.25172996520996,2,versionA_stim.csv,JOLVersion.csv,JOL,JOL1,MULE,DONKEY,Study1,F,30,46,JOL,User,-,"How likely are you to correctly recall the second item in the pair?|Type your response on a scale from 0-100 and then press Enter.",Study/JOL,"Study Phase",151,,,-1,-1,,,,,1
w10164530_bam,ozeuq936g4,"Mediated JOLs",1,27,2024-02-13T02:05:08+00:00,0.3121280670166,2,versionA_stim.csv,JOLVersion.csv,JOL,JOL1,CAKE,HAND,Study1,U,49,19,JOL,User,-,"How likely are you to correctly recall the second item in the pair?|Type your response on a scale from 0-100 and then press Enter.",Study/JOL,"Study Phase",206,,,93,93,,,,0,1
w10164530_bam,ozeuq936g4,"Mediated JOLs",1,28,2024-02-13T02:05:09+00:00,0.28415894508362,2,versionA_stim.csv,JOLVersion.csv,JOL,JOL1,SIP,DRINK,Study1,F,32,32,JOL,User,-,"How likely are you to correctly recall the second item in the pair?|Type your response on a scale from 0-100 and then press Enter.",Study/JOL,"Study Phase",166,,,-1,-1,,,,,1
w10164530_bam,ozeuq936g4,"Mediated JOLs",1,29,2024-02-13T02:05:09+00:00,0.30856895446777,2,versionA_stim.csv,JOLVersion.csv,JOL,JOL1,FUZZY,BANG,Study1,U,50,18,JOL,User,-,"How likely are you to correctly recall the second item in the pair?|Type your response on a scale from 0-100 and then press Enter.",Study/JOL,"Study Phase",202,,,-1,-1,,,,,1
w10164530_bam,ozeuq936g4,"Mediated JOLs",1,30,2024-02-13T02:05:09+00:00,0.29419708251953,2,versionA_stim.csv,JOLVersion.csv,JOL,JOL1,HORSE,WHEEL,Study1,M,14,16,JOL,User,-,"How likely are you to correctly recall the second item in the pair?|Type your response on a scale from 0-100 and then press Enter.",Study/JOL,"Study Phase",190,,,-1,-1,,,,,1
w10164530_bam,ozeuq936g4,"Mediated JOLs",1,31,2024-02-13T02:05:10+00:00,0.42132997512817,2,versionA_stim.csv,JOLVersion.csv,JOL,JOL1,BAT,BOUNCE,Study1,M,12,12,JOL,User,-,"How likely are you to correctly recall the second item in the pair?|Type your response on a scale from 0-100 and then press Enter.",Study/JOL,"Study Phase",303,,,88,88,,,,0,1
w10164530_bam,ozeuq936g4,"Mediated JOLs",1,32,2024-02-13T02:05:10+00:00,0.56343388557434,2,versionA_stim.csv,JOLVersion.csv,JOL,JOL1,WORD,SENTENCE,Study1,F,27,29,JOL,User,-,"How likely are you to correctly recall the second item in the pair?|Type your response on a scale from 0-100 and then press Enter.",Study/JOL,"Study Phase",434,,,182,182,,,,0,1
w10164530_bam,ozeuq936g4,"Mediated JOLs",1,33,2024-02-13T02:05:11+00:00,0.41486620903015,2,versionA_stim.csv,JOLVersion.csv,JOL,JOL1,HARD,COTTON,Study1,M,20,14,JOL,User,-,"How likely are you to correctly recall the second item in the pair?|Type your response on a scale from 0-100 and then press Enter.",Study/JOL,"Study Phase",295,,,91,91,,,,0,1
w10164530_bam,ozeuq936g4,"Mediated JOLs",1,34,2024-02-13T02:05:11+00:00,0.34416389465332,2,versionA_stim.csv,JOLVersion.csv,JOL,JOL1,SOON,BELT,Study1,U,46,22,JOL,User,-,"How likely are you to correctly recall the second item in the pair?|Type your response on a scale from 0-100 and then press Enter.",Study/JOL,"Study Phase",224,,,92,92,,,,0,1
w10164530_bam,ozeuq936g4,"Mediated JOLs",1,35,2024-02-13T02:05:11+00:00,0.40541005134583,2,versionA_stim.csv,JOLVersion.csv,JOL,JOL1,TEMPERATURE,MORNING,Study1,U,48,48,JOL,User,-,"How likely are you to correctly recall the second item in the pair?|Type your response on a scale from 0-100 and then press Enter.",Study/JOL,"Study Phase",280,,,93,93,,,,0,1
w10164530_bam,ozeuq936g4,"Mediated JOLs",1,36,2024-02-13T02:05:12+00:00,0.32345104217529,2,versionA_stim.csv,JOLVersion.csv,JOL,JOL1,TREE,SYRUP,Study1,M,11,21,JOL,User,-,"How likely are you to correctly recall the second item in the pair?|Type your response on a scale from 0-100 and then press Enter.",Study/JOL,"Study Phase",176,,,-1,-1,,,,,1
w10164530_bam,ozeuq936g4,"Mediated JOLs",1,37,2024-02-13T02:05:12+00:00,0.36498284339905,2,versionA_stim.csv,JOLVersion.csv,JOL,JOL1,TOOTH,HAIR,Study1,M,19,10,JOL,User,-,"How likely are you to correctly recall the second item in the pair?|Type your response on a scale from 0-100 and then press Enter.",Study/JOL,"Study Phase",229,,,87,87,,,,0,1
w10164530_bam,ozeuq936g4,"Mediated JOLs",1,38,2024-02-13T02:05:12+00:00,0.32594895362854,2,versionA_stim.csv,JOLVersion.csv,JOL,JOL1,MULE,DONKEY,Study1,F,24,45,JOL,User,-,"How likely are you to correctly recall the second item in the pair?|Type your response on a scale from 0-100 and then press Enter.",Study/JOL,"Study Phase",204,,,-1,-1,,,,,1
w10164530_bam,ozeuq936g4,"Mediated JOLs",1,39,2024-02-13T02:05:13+00:00,0.3991060256958,2,versionA_stim.csv,JOLVersion.csv,JOL,JOL1,MIRROR,MAROON,Study1,U,36,38,JOL,User,-,"How likely are you to correctly recall the second item in the pair?|Type your response on a scale from 0-100 and then press Enter.",Study/JOL,"Study Phase",282,,,-1,-1,,,,,1
w10164530_bam,ozeuq936g4,"Mediated JOLs",1,40,2024-02-13T02:05:18+00:00,5.3554620742798,2,versionA_stim.csv,JOLVersion.csv,JOL,JOL1,NAP,SLEEP,Study1,F,29,25,JOL,User,-,"How likely are you to correctly recall the second item in the pair?|Type your response on a scale from 0-100 and then press Enter.",Study/JOL,"Study Phase",5189,,,83,83,,,,0,1
w10164530_bam,ozeuq936g4,"Mediated JOLs",1,41,2024-02-13T02:05:20+00:00,1.9575181007385,2,versionA_stim.csv,JOLVersion.csv,JOL,JOL1,LITTER,TRASH,Study1,F,21,44,JOL,User,-,"How likely are you to correctly recall the second item in the pair?|Type your response on a scale from 0-100 and then press Enter.",Study/JOL,"Study Phase",1819,,,1580,1580,,,,0,1
w10164530_bam,ozeuq936g4,"Mediated JOLs",1,42,2024-02-13T02:05:20+00:00,0.27189183235168,2,versionA_stim.csv,JOLVersion.csv,JOL,JOL1,SCALP,HEAD,Study1,F,23,39,JOL,User,-,"How likely are you to correctly recall the second item in the pair?|Type your response on a scale from 0-100 and then press Enter.",Study/JOL,"Study Phase",152,,,-1,-1,,,,,1
w10164530_bam,ozeuq936g4,"Mediated JOLs",1,43,2024-02-13T02:05:21+00:00,0.40434908866882,2,versionA_stim.csv,JOLVersion.csv,JOL,JOL1,CRACKLE,ELECTION,Study1,U,39,11,JOL,User,-,"How likely are you to correctly recall the second item in the pair?|Type your response on a scale from 0-100 and then press Enter.",Study/JOL,"Study Phase",290,,,84,84,,,,0,1
w10164530_bam,ozeuq936g4,"Mediated JOLs",1,44,2024-02-13T02:05:21+00:00,0.35718488693237,2,versionA_stim.csv,JOLVersion.csv,JOL,JOL1,BIRTHDAY,PIE,Study1,M,9,35,JOL,User,-,"How likely are you to correctly recall the second item in the pair?|Type your response on a scale from 0-100 and then press Enter.",Study/JOL,"Study Phase",212,,,-1,-1,,,,,1
w10164530_bam,ozeuq936g4,"Mediated JOLs",1,45,2024-02-13T02:05:22+00:00,0.33398008346558,2,versionA_stim.csv,JOLVersion.csv,JOL,JOL1,CRY,BOTTLE,Study1,M,16,50,JOL,User,-,"How likely are you to correctly recall the second item in the pair?|Type your response on a scale from 0-100 and then press Enter.",Study/JOL,"Study Phase",219,,,82,82,,,,0,1
w10164530_bam,ozeuq936g4,"Mediated JOLs",1,46,2024-02-13T02:05:22+00:00,0.26834201812744,2,versionA_stim.csv,JOLVersion.csv,JOL,JOL1,KEYS,ROD,Study1,U,45,42,JOL,User,-,"How likely are you to correctly recall the second item in the pair?|Type your response on a scale from 0-100 and then press Enter.",Study/JOL,"Study Phase",146,,,-1,-1,,,,,1
w10164530_bam,ozeuq936g4,"Mediated JOLs",1,47,2024-02-13T02:05:22+00:00,0.35103297233582,2,versionA_stim.csv,JOLVersion.csv,JOL,JOL1,WEDDING,FINGER,Study1,M,17,33,JOL,User,-,"How likely are you to correctly recall the second item in the pair?|Type your response on a scale from 0-100 and then press Enter.",Study/JOL,"Study Phase",237,,,81,81,,,,0,1
w10164530_bam,ozeuq936g4,"Mediated JOLs",1,48,2024-02-13T02:05:22+00:00,0.3058009147644,2,versionA_stim.csv,JOLVersion.csv,JOL,JOL1,HYGIENE,CLEAN,Study1,F,28,17,JOL,User,-,"How likely are you to correctly recall the second item in the pair?|Type your response on a scale from 0-100 and then press Enter.",Study/JOL,"Study Phase",196,,,-1,-1,,,,,1
w10164530_bam,ozeuq936g4,"Mediated JOLs",1,49,2024-02-13T02:05:23+00:00,0.2835111618042,2,versionA_stim.csv,JOLVersion.csv,JOL,JOL1,ROOT,PLANT,Study1,F,25,36,JOL,User,-,"How likely are you to correctly recall the second item in the pair?|Type your response on a scale from 0-100 and then press Enter.",Study/JOL,"Study Phase",181,,,-1,-1,,,,,1
w10164530_bam,ozeuq936g4,"Mediated JOLs",1,50,2024-02-13T02:05:23+00:00,0.28636193275452,2,versionA_stim.csv,JOLVersion.csv,JOL,JOL1,BEACH,BOX,Study1,M,7,41,JOL,User,-,"How likely are you to correctly recall the second item in the pair?|Type your response on a scale from 0-100 and then press Enter.",Study/JOL,"Study Phase",178,,,62,62,,,,0,1
w10164530_bam,ozeuq936g4,"Mediated JOLs",1,51,2024-02-13T02:05:23+00:00,0.28085398674011,2,versionA_stim.csv,JOLVersion.csv,JOL,JOL1,GIVE,STEAK,Study1,U,38,7,JOL,User,-,"How likely are you to correctly recall the second item in the pair?|Type your response on a scale from 0-100 and then press Enter.",Study/JOL,"Study Phase",174,,,-1,-1,,,,,1
w10164530_bam,ozeuq936g4,"Mediated JOLs",1,52,2024-02-13T02:05:24+00:00,0.2490029335022,2,versionA_stim.csv,JOLVersion.csv,JOL,JOL1,LION,STRIPES,Study1,M,6,15,JOL,User,-,"How likely are you to correctly recall the second item in the pair?|Type your response on a scale from 0-100 and then press Enter.",Study/JOL,"Study Phase",138,,,-1,-1,,,,,1
w10164530_bam,ozeuq936g4,"Mediated JOLs",1,53,2024-02-13T02:05:24+00:00,0.30651903152466,2,versionA_stim.csv,JOLVersion.csv,JOL,JOL1,DAY,DARK,Study1,M,18,47,JOL,User,-,"How likely are you to correctly recall the second item in the pair?|Type your response on a scale from 0-100 and then press Enter.",Study/JOL,"Study Phase",195,,,-1,-1,,,,,1
w10164530_bam,ozeuq936g4,"Mediated JOLs",1,54,2024-02-13T02:05:24+00:00,0.26031804084778,2,versionA_stim.csv,JOLVersion.csv,JOL,JOL1,WAGE,MONEY,Study1,F,22,20,JOL,User,-,"How likely are you to correctly recall the second item in the pair?|Type your response on a scale from 0-100 and then press Enter.",Study/JOL,"Study Phase",138,,,-1,-1,,,,,1
w10164530_bam,ozeuq936g4,"Mediated JOLs",1,55,2024-02-13T02:05:24+00:00,0.28434491157532,2,versionA_stim.csv,JOLVersion.csv,JOL,JOL1,SWAN,BIRD,Study1,F,26,31,JOL,User,-,"How likely are you to correctly recall the second item in the pair?|Type your response on a scale from 0-100 and then press Enter.",Study/JOL,"Study Phase",183,,,-1,-1,,,,,1
w10164530_bam,ozeuq936g4,"Mediated JOLs",1,56,2024-02-13T02:05:25+00:00,0.24736714363098,2,versionA_stim.csv,JOLVersion.csv,JOL,JOL1,THING,STUFF,BUFFER2,Buffer,55,55,JOL,User,-,"How likely are you to correctly recall the second item in the pair?|Type your response on a scale from 0-100 and then press Enter.",Study/JOL,BUFFER2,138,,,-1,-1,,,,,1
w10164530_bam,ozeuq936g4,"Mediated JOLs",1,57,2024-02-13T02:05:25+00:00,0.2909688949585,2,versionA_stim.csv,JOLVersion.csv,JOL,JOL1,SHERRIF,POLICE,BUFFER2,Buffer,52,52,JOL,User,-,"How likely are you to correctly recall the second item in the pair?|Type your response on a scale from 0-100 and then press Enter.",Study/JOL,BUFFER2,187,,,-1,-1,,,,,1
w10164530_bam,ozeuq936g4,"Mediated JOLs",1,58,2024-02-13T02:05:25+00:00,0.27418804168701,2,versionA_stim.csv,JOLVersion.csv,JOL,JOL1,MONTH,YEAR,BUFFER3,Buffer,57,60,JOL,User,-,"How likely are you to correctly recall the second item in the pair?|Type your response on a scale from 0-100 and then press Enter.",Study/JOL,BUFFER2,169,,,-1,-1,,,,,1
w10164530_bam,ozeuq936g4,"Mediated JOLs",1,59,2024-02-13T02:05:25+00:00,0.26714110374451,2,versionA_stim.csv,JOLVersion.csv,JOL,JOL1,OCTOBER,SPOOKY,BUFFER3,Buffer,60,61,JOL,User,-,"How likely are you to correctly recall the second item in the pair?|Type your response on a scale from 0-100 and then press Enter.",Study/JOL,BUFFER2,159,,,-1,-1,,,,,1
w10164530_bam,ozeuq936g4,"Mediated JOLs",1,60,2024-02-13T02:05:26+00:00,0.25838088989258,2,versionA_stim.csv,JOLVersion.csv,JOL,JOL1,MALT,CHOCOLATE,BUFFER2,Buffer,53,53,JOL,User,-,"How likely are you to correctly recall the second item in the pair?|Type your response on a scale from 0-100 and then press Enter.",Study/JOL,BUFFER2,144,,,-1,-1,,,,,1
w10164530_bam,ozeuq936g4,"Mediated JOLs",1,61,2024-02-13T02:05:31+00:00,5.148029088974,2,versionA_stim.csv,JOLVersion.csv,JOL,JOL1,,,,,,0,Instruct,User,-,"You have completed this section. Please press Enter.",Filler_Instruction,Instruct2,5000,,,101,101,,,,,1
w10164530_bam,ozeuq936g4,"Mediated JOLs",1,62,2024-02-13T02:07:31+00:00,120.40650105476,2,versionA_stim.csv,JOLVersion.csv,JOL,JOL1,,,,,,0,FreeRecall,120,120,"Please list the 50 US states in alphabetical order. The task will automatically advance to the next screen after two minutes.",,Filler1,120004,"Alabama Alaska Arizona Arkansas California Colorado Connecticut Delaware Florida Georgia Hawaii Idaho Illinois Indiana Iowa Kansas Kentucky Louisiana Maine Maryland Massachusetts Michigan Minnesota Mississippi Missouri Montana Nebraska Nevada New Hampshire New Jersey New Mexico New York North Carolina North Dakota Ohio Oklahoma Oregon Pennsylvania Rhode Island South Carolina South Dakota Tennessee Texas Utah Vermont Virginia Washington West Virginia Wisconsin Wyoming",0,-1,-1,0,0,,,0.913
w10164530_bam,ozeuq936g4,"Mediated JOLs",1,63,2024-02-13T02:07:43+00:00,11.796304941177,2,versionA_stim.csv,JOLVersion.csv,JOL,JOL1,,,,,,0,Instruct,-,10,"You will now be presented with the first word from each of the previously studied item pairs. Please type the missing word. If you do not know the word, you may guess or press Enter to skip forward to the next pair.",,Instruct3,11600,,,-1,-1,,,,,1
w10164530_bam,ozeuq936g4,"Mediated JOLs",1,64,2024-02-13T02:07:51+00:00,7.5903310775757,2,versionA_stim.csv,JOLVersion.csv,JOL,JOL1,CRY,BOTTLE,Study1,M,16,50,Test,User,-,,Recall,Recall1,7403,cry,0,6174,6973,0,0,,,1
w10164530_bam,ozeuq936g4,"Mediated JOLs",1,65,2024-02-13T02:07:54+00:00,2.9714539051056,2,versionA_stim.csv,JOLVersion.csv,JOL,JOL1,MIRROR,MAROON,Study1,U,36,38,Test,User,-,,Recall,Recall1,2816,mirror,50,1058,2443,0,0,,,1
w10164530_bam,ozeuq936g4,"Mediated JOLs",1,66,2024-02-13T02:07:56+00:00,2.8010149002075,2,versionA_stim.csv,JOLVersion.csv,JOL,JOL1,SIGN,TICK,Study1,U,47,30,Test,User,-,,Recall,Recall1,2664,sign,25,1078,2499,0,0,,,1
w10164530_bam,ozeuq936g4,"Mediated JOLs",1,67,2024-02-13T02:07:59+00:00,2.1927840709686,2,versionA_stim.csv,JOLVersion.csv,JOL,JOL1,TUNA,FISH,Study1,F,35,37,Test,User,-,,Recall,Recall1,2054,tuna,0,966,1633,0,0,,,1
w10164530_bam,ozeuq936g4,"Mediated JOLs",1,68,2024-02-13T02:08:01+00:00,2.2895059585571,2,versionA_stim.csv,JOLVersion.csv,JOL,JOL1,BEACH,BOX,Study1,M,7,41,Test,User,-,,Recall,Recall1,2154,beach,25,782,1913,0,0,,,1
w10164530_bam,ozeuq936g4,"Mediated JOLs",1,69,2024-02-13T02:08:02+00:00,0.89631414413452,2,versionA_stim.csv,JOLVersion.csv,JOL,JOL1,MAZE,PHONE,Study1,U,42,27,Test,User,-,,Recall,Recall1,759,d,0,577,578,0,0,,,1
w10164530_bam,ozeuq936g4,"Mediated JOLs",1,70,2024-02-13T02:08:02+00:00,0.34648084640503,2,versionA_stim.csv,JOLVersion.csv,JOL,JOL1,VEHICLE,CHARM,Study1,U,40,26,Test,User,-,,Recall,Recall1,225,d,0,77,77,0,0,,,1
w10164530_bam,ozeuq936g4,"Mediated JOLs",1,71,2024-02-13T02:08:02+00:00,0.26689410209656,2,versionA_stim.csv,JOLVersion.csv,JOL,JOL1,CIRCLE,DANCE,Study1,M,13,24,Test,User,-,,Recall,Recall1,157,d,33.333333333333,68,68,0,0,,,1
w10164530_bam,ozeuq936g4,"Mediated JOLs",1,72,2024-02-13T02:08:03+00:00,0.27846884727478,2,versionA_stim.csv,JOLVersion.csv,JOL,JOL1,NAP,SLEEP,Study1,F,29,25,Test,User,-,,Recall,Recall1,176,d,0,-1,-1,0,0,,,1
w10164530_bam,ozeuq936g4,"Mediated JOLs",1,73,2024-02-13T02:08:03+00:00,0.214280128479,2,versionA_stim.csv,JOLVersion.csv,JOL,JOL1,MULE,DONKEY,Study1,F,30,46,Test,User,-,,Recall,Recall1,117,,0,-1,-1,0,0,,,1
w10164530_bam,ozeuq936g4,"Mediated JOLs",1,74,2024-02-13T02:08:04+00:00,0.80783009529114,2,versionA_stim.csv,JOLVersion.csv,JOL,JOL1,LITTER,TRASH,Study1,F,21,44,Test,User,-,,Recall,Recall1,691,ddd,0,90,587,0,0,,,1
w10164530_bam,ozeuq936g4,"Mediated JOLs",1,75,2024-02-13T02:08:04+00:00,0.21879291534424,2,versionA_stim.csv,JOLVersion.csv,JOL,JOL1,CEILING,CARPET,Study1,M,15,13,Test,User,-,,Recall,Recall1,100,,0,-1,-1,0,0,,,1
w10164530_bam,ozeuq936g4,"Mediated JOLs",1,76,2024-02-13T02:08:04+00:00,0.23626899719238,2,versionA_stim.csv,JOLVersion.csv,JOL,JOL1,KEYS,ROD,Study1,U,45,42,Test,User,-,,Recall,Recall1,133,,0,-1,-1,0,0,,,1
w10164530_bam,ozeuq936g4,"Mediated JOLs",1,77,2024-02-13T02:08:04+00:00,0.18766808509827,2,versionA_stim.csv,JOLVersion.csv,JOL,JOL1,DAY,DARK,Study1,M,18,47,Test,User,-,,Recall,Recall1,91,,0,-1,-1,0,0,,,1
w10164530_bam,ozeuq936g4,"Mediated JOLs",1,78,2024-02-13T02:08:05+00:00,0.17468094825745,2,versionA_stim.csv,JOLVersion.csv,JOL,JOL1,WEDDING,FINGER,Study1,M,17,33,Test,User,-,,Recall,Recall1,76,,0,-1,-1,0,0,,,1
w10164530_bam,ozeuq936g4,"Mediated JOLs",1,79,2024-02-13T02:08:05+00:00,0.20887899398804,2,versionA_stim.csv,JOLVersion.csv,JOL,JOL1,WAGE,MONEY,Study1,F,22,20,Test,User,-,,Recall,Recall1,111,d,0,66,66,0,0,,,1
w10164530_bam,ozeuq936g4,"Mediated JOLs",1,80,2024-02-13T02:08:05+00:00,0.70947790145874,2,versionA_stim.csv,JOLVersion.csv,JOL,JOL1,SWAN,BIRD,Study1,F,26,31,Test,User,-,,Recall,Recall1,604,ddd,28.571428571429,128,550,0,0,,,1
w10164530_bam,ozeuq936g4,"Mediated JOLs",1,81,2024-02-13T02:08:06+00:00,0.19812202453613,2,versionA_stim.csv,JOLVersion.csv,JOL,JOL1,CAKE,HAND,Study1,U,49,19,Test,User,-,,Recall,Recall1,85,,0,-1,-1,0,0,,,1
w10164530_bam,ozeuq936g4,"Mediated JOLs",1,82,2024-02-13T02:08:06+00:00,0.19025301933289,2,versionA_stim.csv,JOLVersion.csv,JOL,JOL1,HARD,COTTON,Study1,M,20,14,Test,User,-,,Recall,Recall1,91,,0,-1,-1,0,0,,,1
w10164530_bam,ozeuq936g4,"Mediated JOLs",1,83,2024-02-13T02:08:06+00:00,0.178386926651,2,versionA_stim.csv,JOLVersion.csv,JOL,JOL1,TEMPERATURE,MORNING,Study1,U,48,48,Test,User,-,,Recall,Recall1,77,,0,-1,-1,0,0,,,1
w10164530_bam,ozeuq936g4,"Mediated JOLs",1,84,2024-02-13T02:08:06+00:00,0.17727899551392,2,versionA_stim.csv,JOLVersion.csv,JOL,JOL1,SCALP,HEAD,Study1,F,23,39,Test,User,-,,Recall,Recall1,81,,0,-1,-1,0,0,,,1
w10164530_bam,ozeuq936g4,"Mediated JOLs",1,85,2024-02-13T02:08:06+00:00,0.18496608734131,2,versionA_stim.csv,JOLVersion.csv,JOL,JOL1,HORSE,WHEEL,Study1,M,14,16,Test,User,-,,Recall,Recall1,86,d,0,63,63,0,0,,,1
w10164530_bam,ozeuq936g4,"Mediated JOLs",1,86,2024-02-13T02:08:07+00:00,0.21161198616028,2,versionA_stim.csv,JOLVersion.csv,JOL,JOL1,GIVE,STEAK,Study1,U,38,7,Test,User,-,,Recall,Recall1,109,,0,-1,-1,0,0,,,1
w10164530_bam,ozeuq936g4,"Mediated JOLs",1,87,2024-02-13T02:08:07+00:00,0.17883610725403,2,versionA_stim.csv,JOLVersion.csv,JOL,JOL1,ORCHID,FLOWER,Study1,F,34,28,Test,User,-,,Recall,Recall1,78,,0,-1,-1,0,0,,,1
w10164530_bam,ozeuq936g4,"Mediated JOLs",1,88,2024-02-13T02:08:07+00:00,0.29295182228088,2,versionA_stim.csv,JOLVersion.csv,JOL,JOL1,SHELL,SHAKE,Study1,U,43,9,Test,User,-,,Recall,Recall1,173,d,0,69,69,0,0,,,1
w10164530_bam,ozeuq936g4,"Mediated JOLs",1,89,2024-02-13T02:08:07+00:00,0.18105816841125,2,versionA_stim.csv,JOLVersion.csv,JOL,JOL1,MULE,DONKEY,Study1,F,24,45,Test,User,-,,Recall,Recall1,79,,0,-1,-1,0,0,,,1
w10164530_bam,ozeuq936g4,"Mediated JOLs",1,90,2024-02-13T02:08:08+00:00,0.35529494285583,2,versionA_stim.csv,JOLVersion.csv,JOL,JOL1,FUZZY,BANG,Study1,U,50,18,Test,User,-,,Recall,Recall1,89,d,0,67,67,0,0,,,1
w10164530_bam,ozeuq936g4,"Mediated JOLs",1,91,2024-02-13T02:08:08+00:00,0.24411296844482,2,versionA_stim.csv,JOLVersion.csv,JOL,JOL1,BIRTHDAY,PIE,Study1,M,9,35,Test,User,-,,Recall,Recall1,107,,0,-1,-1,0,0,,,1
w10164530_bam,ozeuq936g4,"Mediated JOLs",1,92,2024-02-13T02:08:08+00:00,0.2849280834198,2,versionA_stim.csv,JOLVersion.csv,JOL,JOL1,SIP,DRINK,Study1,F,32,32,Test,User,-,,Recall,Recall1,182,d,33.333333333333,78,78,0,0,,,1
w10164530_bam,ozeuq936g4,"Mediated JOLs",1,93,2024-02-13T02:08:08+00:00,0.22760987281799,2,versionA_stim.csv,JOLVersion.csv,JOL,JOL1,HYGIENE,CLEAN,Study1,F,28,17,Test,User,-,,Recall,Recall1,126,d,0,-1,-1,0,0,,,1
w10164530_bam,ozeuq936g4,"Mediated JOLs",1,94,2024-02-13T02:08:09+00:00,0.19724607467651,2,versionA_stim.csv,JOLVersion.csv,JOL,JOL1,STRETCH,CLOTH,Study1,U,37,8,Test,User,-,,Recall,Recall1,99,,0,-1,-1,0,0,,,1
w10164530_bam,ozeuq936g4,"Mediated JOLs",1,95,2024-02-13T02:08:09+00:00,0.16952085494995,2,versionA_stim.csv,JOLVersion.csv,JOL,JOL1,WAR,QUIET,Study1,M,8,23,Test,User,-,,Recall,Recall1,74,,0,-1,-1,0,0,,,1
w10164530_bam,ozeuq936g4,"Mediated JOLs",1,96,2024-02-13T02:08:09+00:00,0.19380021095276,2,versionA_stim.csv,JOLVersion.csv,JOL,JOL1,ROUGH,SILK,Study1,M,10,51,Test,User,-,,Recall,Recall1,98,,0,-1,-1,0,0,,,1
w10164530_bam,ozeuq936g4,"Mediated JOLs",1,97,2024-02-13T02:08:09+00:00,0.21983599662781,2,versionA_stim.csv,JOLVersion.csv,JOL,JOL1,CRACKLE,ELECTION,Study1,U,39,11,Test,User,-,,Recall,Recall1,70,,0,-1,-1,0,0,,,1
w10164530_bam,ozeuq936g4,"Mediated JOLs",1,98,2024-02-13T02:08:09+00:00,0.25428199768066,2,versionA_stim.csv,JOLVersion.csv,JOL,JOL1,AFFECTION,LOVE,Study1,F,31,40,Test,User,-,,Recall,Recall1,152,,0,-1,-1,0,0,,,1
w10164530_bam,ozeuq936g4,"Mediated JOLs",1,99,2024-02-13T02:08:10+00:00,0.1809778213501,2,versionA_stim.csv,JOLVersion.csv,JOL,JOL1,ROOT,PLANT,Study1,F,25,36,Test,User,-,,Recall,Recall1,78,,0,-1,-1,0,0,,,1
w10164530_bam,ozeuq936g4,"Mediated JOLs",1,100,2024-02-13T02:08:10+00:00,0.20643615722656,2,versionA_stim.csv,JOLVersion.csv,JOL,JOL1,TOOTH,HAIR,Study1,M,19,10,Test,User,-,,Recall,Recall1,111,,0,-1,-1,0,0,,,1
w10164530_bam,ozeuq936g4,"Mediated JOLs",1,101,2024-02-13T02:08:10+00:00,0.21544981002808,2,versionA_stim.csv,JOLVersion.csv,JOL,JOL1,TREE,SYRUP,Study1,M,11,21,Test,User,-,,Recall,Recall1,117,,0,-1,-1,0,0,,,1
w10164530_bam,ozeuq936g4,"Mediated JOLs",1,102,2024-02-13T02:08:10+00:00,0.18080401420593,2,versionA_stim.csv,JOLVersion.csv,JOL,JOL1,LION,STRIPES,Study1,M,6,15,Test,User,-,,Recall,Recall1,83,,0,-1,-1,0,0,,,1
w10164530_bam,ozeuq936g4,"Mediated JOLs",1,103,2024-02-13T02:08:10+00:00,0.17785906791687,2,versionA_stim.csv,JOLVersion.csv,JOL,JOL1,BAT,BOUNCE,Study1,M,12,12,Test,User,-,,Recall,Recall1,78,,0,-1,-1,0,0,,,1
w10164530_bam,ozeuq936g4,"Mediated JOLs",1,104,2024-02-13T02:08:11+00:00,0.3296799659729,2,versionA_stim.csv,JOLVersion.csv,JOL,JOL1,LISTEN,FICTION,Study1,U,44,49,Test,User,-,,Recall,Recall1,223,d,0,195,195,0,0,,,1
w10164530_bam,ozeuq936g4,"Mediated JOLs",1,105,2024-02-13T02:08:11+00:00,0.21749401092529,2,versionA_stim.csv,JOLVersion.csv,JOL,JOL1,SOON,BELT,Study1,U,46,22,Test,User,-,,Recall,Recall1,103,d,0,74,74,0,0,,,1
w10164530_bam,ozeuq936g4,"Mediated JOLs",1,106,2024-02-13T02:08:11+00:00,0.3511381149292,2,versionA_stim.csv,JOLVersion.csv,JOL,JOL1,WORD,SENTENCE,Study1,F,27,29,Test,User,-,,Recall,Recall1,248,,0,-1,-1,0,0,,,1
w10164530_bam,ozeuq936g4,"Mediated JOLs",1,107,2024-02-13T02:08:11+00:00,0.17142701148987,2,versionA_stim.csv,JOLVersion.csv,JOL,JOL1,MEAT,KEYS,Study1,U,41,34,Test,User,-,,Recall,Recall1,74,,0,-1,-1,0,0,,,1
w10164530_bam,ozeuq936g4,"Mediated JOLs",1,108,2024-02-13T02:08:12+00:00,0.2023229598999,2,versionA_stim.csv,JOLVersion.csv,JOL,JOL1,CREDIT,CARD,Study1,F,33,43,Test,User,-,,Recall,Recall1,103,,0,-1,-1,0,0,,,1
w10164530_bam,ozeuq936g4,"Mediated JOLs",1,109,2024-02-13T02:08:33+00:00,21.354194879532,2,versionA_stim.csv,JOLVersion.csv,JOL,JOL1,,,,,,0,Instruct,-,10,"You will now be presented with a new set of word pairs. Please study each pair. Remember that your memory will be tested! When finished, press Enter to move to the next pair.",Initial_Instruct,Instruct4,11583,,,-1,-1,,,,,1
w10164530_bam,ozeuq936g4,"Mediated JOLs",1,110,2024-02-13T02:08:44+00:00,10.961457014084,2,versionA_stim.csv,JOLVersion.csv,JOL,JOL1,,,,,,0,Instruct,,10,"You will again be asked to rate your ability to remember these items using a 0 to 100 scale. Remember to use the full range of the scale!",,Instruct10,10775,,,-1,-1,,,,,1
w10164530_bam,ozeuq936g4,"Mediated JOLs",1,111,2024-02-13T02:08:46+00:00,1.6731150150299,2,versionA_stim.csv,JOLVersion.csv,JOL,JOL1,,,,,,0,Instruct,User,-,"Press Enter when you are readty to begin",,Instruct11,1519,,,-1,-1,,,,,1
w10164530_bam,ozeuq936g4,"Mediated JOLs",1,112,2024-02-13T02:08:51+00:00,5.1882960796356,2,versionA_stim.csv,JOLVersion.csv,JOL,JOL1,MOON,SPACE,BUFFER2,Buffer,54,54,JOL,User,-,"How likely are you to correctly recall the second item in the pair?|Type your response on a scale from 0-100 and then press Enter.",Study/JOL,BUFFER2,5025,,,4909,4909,,,,6,1
w10164530_bam,ozeuq936g4,"Mediated JOLs",1,113,2024-02-13T02:08:51+00:00,0.30253100395203,2,versionA_stim.csv,JOLVersion.csv,JOL,JOL1,NOODLE,STRING,BUFFER4,Buffer,107,108,JOL,User,-,"How likely are you to correctly recall the second item in the pair?|Type your response on a scale from 0-100 and then press Enter.",Study/JOL,BUFFER2,182,,,-1,-1,,,,,1
w10164530_bam,ozeuq936g4,"Mediated JOLs",1,114,2024-02-13T02:08:51+00:00,0.18098902702332,2,versionA_stim.csv,JOLVersion.csv,JOL,JOL1,CAMP,ADVENTURE,BUFFER4,Buffer,110,109,JOL,User,-,"How likely are you to correctly recall the second item in the pair?|Type your response on a scale from 0-100 and then press Enter.",Study/JOL,BUFFER2,86,,,-1,-1,,,,,1
w10164530_bam,ozeuq936g4,"Mediated JOLs",1,115,2024-02-13T02:08:51+00:00,0.18113088607788,2,versionA_stim.csv,JOLVersion.csv,JOL,JOL1,DAYS,WEAKS,BUFFER3,Buffer,56,58,JOL,User,-,"How likely are you to correctly recall the second item in the pair?|Type your response on a scale from 0-100 and then press Enter.",Study/JOL,BUFFER2,90,,,-1,-1,,,,,1
w10164530_bam,ozeuq936g4,"Mediated JOLs",1,116,2024-02-13T02:08:52+00:00,0.20672607421875,2,versionA_stim.csv,JOLVersion.csv,JOL,JOL1,GEESE,GOOSE,BUFFER2,Buffer,51,56,JOL,User,-,"How likely are you to correctly recall the second item in the pair?|Type your response on a scale from 0-100 and then press Enter.",Study/JOL,BUFFER2,109,,,-1,-1,,,,,1
w10164530_bam,ozeuq936g4,"Mediated JOLs",1,117,2024-02-13T02:08:52+00:00,0.17765307426453,2,versionA_stim.csv,JOLVersion.csv,JOL,JOL1,LEASE,TOIL,Study2,U,101,68,JOL,User,-,"How likely are you to correctly recall the second item in the pair?|Type your response on a scale from 0-100 and then press Enter.",Study/JOL,"Study Phase2",82,,,-1,-1,,,,,1
w10164530_bam,ozeuq936g4,"Mediated JOLs",1,118,2024-02-13T02:08:52+00:00,0.17257881164551,2,versionA_stim.csv,JOLVersion.csv,JOL,JOL1,CACTUS,PLANT,Study2,F,76,63,JOL,User,-,"How likely are you to correctly recall the second item in the pair?|Type your response on a scale from 0-100 and then press Enter.",Study/JOL,"Study Phase2",77,,,-1,-1,,,,,1
w10164530_bam,ozeuq936g4,"Mediated JOLs",1,119,2024-02-13T02:08:52+00:00,0.18031716346741,2,versionA_stim.csv,JOLVersion.csv,JOL,JOL1,RAZOR,MUSCLE,Study2,M,75,89,JOL,User,-,"How likely are you to correctly recall the second item in the pair?|Type your response on a scale from 0-100 and then press Enter.",Study/JOL,"Study Phase2",87,,,-1,-1,,,,,1
w10164530_bam,ozeuq936g4,"Mediated JOLs",1,120,2024-02-13T02:08:52+00:00,0.25166702270508,2,versionA_stim.csv,JOLVersion.csv,JOL,JOL1,BENCH,HORN,Study2,U,98,84,JOL,User,-,"How likely are you to correctly recall the second item in the pair?|Type your response on a scale from 0-100 and then press Enter.",Study/JOL,"Study Phase2",149,,,-1,-1,,,,,1
w10164530_bam,ozeuq936g4,"Mediated JOLs",1,121,2024-02-13T02:08:53+00:00,0.22403597831726,2,versionA_stim.csv,JOLVersion.csv,JOL,JOL1,ARTERY,BRONZE,Study2,U,103,96,JOL,User,-,"How likely are you to correctly recall the second item in the pair?|Type your response on a scale from 0-100 and then press Enter.",Study/JOL,"Study Phase2",109,,,-1,-1,,,,,1
w10164530_bam,ozeuq936g4,"Mediated JOLs",1,122,2024-02-13T02:08:53+00:00,0.21465086936951,2,versionA_stim.csv,JOLVersion.csv,JOL,JOL1,SCHOOL,STOP,Study2,M,62,65,JOL,User,-,"How likely are you to correctly recall the second item in the pair?|Type your response on a scale from 0-100 and then press Enter.",Study/JOL,"Study Phase2",105,,,-1,-1,,,,,1
w10164530_bam,ozeuq936g4,"Mediated JOLs",1,123,2024-02-13T02:08:53+00:00,0.24486613273621,2,versionA_stim.csv,JOLVersion.csv,JOL,JOL1,CHILL,COLD,Study2,F,87,66,JOL,User,-,"How likely are you to correctly recall the second item in the pair?|Type your response on a scale from 0-100 and then press Enter.",Study/JOL,"Study Phase2",141,,,109,109,,,,6,1
w10164530_bam,ozeuq936g4,"Mediated JOLs",1,124,2024-02-13T02:08:53+00:00,0.21453404426575,2,versionA_stim.csv,JOLVersion.csv,JOL,JOL1,GRILL,THIGH,Study2,M,72,80,JOL,User,-,"How likely are you to correctly recall the second item in the pair?|Type your response on a scale from 0-100 and then press Enter.",Study/JOL,"Study Phase2",109,,,95,96,,,,6,1
w10164530_bam,ozeuq936g4,"Mediated JOLs",1,125,2024-02-13T02:08:54+00:00,0.2022647857666,2,versionA_stim.csv,JOLVersion.csv,JOL,JOL1,KING,VASE,Study2,U,91,77,JOL,User,-,"How likely are you to correctly recall the second item in the pair?|Type your response on a scale from 0-100 and then press Enter.",Study/JOL,"Study Phase2",103,,,91,91,,,,6,1
w10164530_bam,ozeuq936g4,"Mediated JOLs",1,126,2024-02-13T02:08:54+00:00,0.25574707984924,2,versionA_stim.csv,JOLVersion.csv,JOL,JOL1,INCENSE,SMELL,Study2,F,83,103,JOL,User,-,"How likely are you to correctly recall the second item in the pair?|Type your response on a scale from 0-100 and then press Enter.",Study/JOL,"Study Phase2",146,,,-1,-1,,,,,1
w10164530_bam,ozeuq936g4,"Mediated JOLs",1,127,2024-02-13T02:08:54+00:00,0.20954513549805,2,versionA_stim.csv,JOLVersion.csv,JOL,JOL1,SUMMER,SNOW,Study2,M,61,97,JOL,User,-,"How likely are you to correctly recall the second item in the pair?|Type your response on a scale from 0-100 and then press Enter.",Study/JOL,"Study Phase2",107,,,92,92,,,,6,1
w10164530_bam,ozeuq936g4,"Mediated JOLs",1,128,2024-02-13T02:08:54+00:00,0.17957997322083,2,versionA_stim.csv,JOLVersion.csv,JOL,JOL1,HERD,COW,Study2,F,88,85,JOL,User,-,"How likely are you to correctly recall the second item in the pair?|Type your response on a scale from 0-100 and then press Enter.",Study/JOL,"Study Phase2",85,,,52,52,,,,6,1
w10164530_bam,ozeuq936g4,"Mediated JOLs",1,129,2024-02-13T02:08:54+00:00,0.1845920085907,2,versionA_stim.csv,JOLVersion.csv,JOL,JOL1,CHERRY,RED,Study2,F,80,87,JOL,User,-,"How likely are you to correctly recall the second item in the pair?|Type your response on a scale from 0-100 and then press Enter.",Study/JOL,"Study Phase2",84,,,68,68,,,,5,1
w10164530_bam,ozeuq936g4,"Mediated JOLs",1,130,2024-02-13T02:08:55+00:00,0.19301891326904,2,versionA_stim.csv,JOLVersion.csv,JOL,JOL1,REALITY,ISLAND,Study2,M,64,106,JOL,User,-,"How likely are you to correctly recall the second item in the pair?|Type your response on a scale from 0-100 and then press Enter.",Study/JOL,"Study Phase2",76,,,-1,-1,,,,,1
w10164530_bam,ozeuq936g4,"Mediated JOLs",1,131,2024-02-13T02:08:55+00:00,0.25900506973267,2,versionA_stim.csv,JOLVersion.csv,JOL,JOL1,FEUD,FIGHT,Study2,F,86,88,JOL,User,-,"How likely are you to correctly recall the second item in the pair?|Type your response on a scale from 0-100 and then press Enter.",Study/JOL,"Study Phase2",153,,,101,121,,,,56,1
w10164530_bam,ozeuq936g4,"Mediated JOLs",1,132,2024-02-13T02:08:55+00:00,0.20846199989319,2,versionA_stim.csv,JOLVersion.csv,JOL,JOL1,STRONG,ACCIDENT,Study2,U,94,64,JOL,User,-,"How likely are you to correctly recall the second item in the pair?|Type your response on a scale from 0-100 and then press Enter.",Study/JOL,"Study Phase2",107,,,-1,-1,,,,,1
w10164530_bam,ozeuq936g4,"Mediated JOLs",1,133,2024-02-13T02:08:55+00:00,0.22382092475891,2,versionA_stim.csv,JOLVersion.csv,JOL,JOL1,BRIDGE,WATER,Study2,F,90,90,JOL,User,-,"How likely are you to correctly recall the second item in the pair?|Type your response on a scale from 0-100 and then press Enter.",Study/JOL,"Study Phase2",121,,,-1,-1,,,,,1
w10164530_bam,ozeuq936g4,"Mediated JOLs",1,134,2024-02-13T02:08:56+00:00,0.25071811676025,2,versionA_stim.csv,JOLVersion.csv,JOL,JOL1,WASP,BUG,Study2,F,89,93,JOL,User,-,"How likely are you to correctly recall the second item in the pair?|Type your response on a scale from 0-100 and then press Enter.",Study/JOL,"Study Phase2",149,,,76,76,,,,5,1
w10164530_bam,ozeuq936g4,"Mediated JOLs",1,135,2024-02-13T02:08:56+00:00,0.20647096633911,2,versionA_stim.csv,JOLVersion.csv,JOL,JOL1,DOCUMENT,PAPER,Study2,F,82,83,JOL,User,-,"How likely are you to correctly recall the second item in the pair?|Type your response on a scale from 0-100 and then press Enter.",Study/JOL,"Study Phase2",107,,,91,91,,,,5,1
w10164530_bam,ozeuq936g4,"Mediated JOLs",1,136,2024-02-13T02:08:56+00:00,0.28685402870178,2,versionA_stim.csv,JOLVersion.csv,JOL,JOL1,HAPPY,CAR,Study2,U,92,99,JOL,User,-,"How likely are you to correctly recall the second item in the pair?|Type your response on a scale from 0-100 and then press Enter.",Study/JOL,"Study Phase2",187,,,172,172,,,,5,1
w10164530_bam,ozeuq936g4,"Mediated JOLs",1,137,2024-02-13T02:08:56+00:00,0.22318291664124,2,versionA_stim.csv,JOLVersion.csv,JOL,JOL1,SOAP,DRINK,Study2,M,67,62,JOL,User,-,"How likely are you to correctly recall the second item in the pair?|Type your response on a scale from 0-100 and then press Enter.",Study/JOL,"Study Phase2",121,,,101,101,,,,4,1
w10164530_bam,ozeuq936g4,"Mediated JOLs",1,138,2024-02-13T02:08:57+00:00,0.27011299133301,2,versionA_stim.csv,JOLVersion.csv,JOL,JOL1,RAKE,SEED,Study2,M,69,98,JOL,User,-,"How likely are you to correctly recall the second item in the pair?|Type your response on a scale from 0-100 and then press Enter.",Study/JOL,"Study Phase2",154,,,73,73,,,,5,1
w10164530_bam,ozeuq936g4,"Mediated JOLs",1,139,2024-02-13T02:08:57+00:00,0.22126698493958,2,versionA_stim.csv,JOLVersion.csv,JOL,JOL1,WINDOW,KNOB,Study2,M,74,75,JOL,User,-,"How likely are you to correctly recall the second item in the pair?|Type your response on a scale from 0-100 and then press Enter.",Study/JOL,"Study Phase2",118,,,-1,-1,,,,,1
w10164530_bam,ozeuq936g4,"Mediated JOLs",1,140,2024-02-13T02:08:57+00:00,0.22496008872986,2,versionA_stim.csv,JOLVersion.csv,JOL,JOL1,VALLEY,PEAK,Study2,M,73,100,JOL,User,-,"How likely are you to correctly recall the second item in the pair?|Type your response on a scale from 0-100 and then press Enter.",Study/JOL,"Study Phase2",125,,,112,112,,,,7,1
w10164530_bam,ozeuq936g4,"Mediated JOLs",1,141,2024-02-13T02:08:57+00:00,0.23428201675415,2,versionA_stim.csv,JOLVersion.csv,JOL,JOL1,SUGAR,RIDDLE,Study2,U,95,73,JOL,User,-,"How likely are you to correctly recall the second item in the pair?|Type your response on a scale from 0-100 and then press Enter.",Study/JOL,"Study Phase2",118,,,77,77,,,,7,1
w10164530_bam,ozeuq936g4,"Mediated JOLs",1,142,2024-02-13T02:08:57+00:00,0.22053980827332,2,versionA_stim.csv,JOLVersion.csv,JOL,JOL1,MIRROR,CHILDREN,Study2,U,104,71,JOL,User,-,"How likely are you to correctly recall the second item in the pair?|Type your response on a scale from 0-100 and then press Enter.",Study/JOL,"Study Phase2",114,,,95,100,,,,67,1
w10164530_bam,ozeuq936g4,"Mediated JOLs",1,143,2024-02-13T02:08:58+00:00,0.21263909339905,2,versionA_stim.csv,JOLVersion.csv,JOL,JOL1,PUSH,CLUTTER,Study2,U,96,78,JOL,User,-,"How likely are you to correctly recall the second item in the pair?|Type your response on a scale from 0-100 and then press Enter.",Study/JOL,"Study Phase2",106,,,92,92,,,,6,1
w10164530_bam,ozeuq936g4,"Mediated JOLs",1,144,2024-02-13T02:08:58+00:00,0.25671100616455,2,versionA_stim.csv,JOLVersion.csv,JOL,JOL1,BLAZE,FIRE,Study2,F,81,102,JOL,User,-,"How likely are you to correctly recall the second item in the pair?|Type your response on a scale from 0-100 and then press Enter.",Study/JOL,"Study Phase2",142,,,-1,-1,,,,,1
w10164530_bam,ozeuq936g4,"Mediated JOLs",1,145,2024-02-13T02:08:58+00:00,0.24381399154663,2,versionA_stim.csv,JOLVersion.csv,JOL,JOL1,PANTS,COLLAR,Study2,M,63,95,JOL,User,-,"How likely are you to correctly recall the second item in the pair?|Type your response on a scale from 0-100 and then press Enter.",Study/JOL,"Study Phase2",140,,,95,95,,,,6,1
w10164530_bam,ozeuq936g4,"Mediated JOLs",1,146,2024-02-13T02:08:58+00:00,0.27162909507751,2,versionA_stim.csv,JOLVersion.csv,JOL,JOL1,HEAVY,FEATHER,Study2,M,68,82,JOL,User,-,"How likely are you to correctly recall the second item in the pair?|Type your response on a scale from 0-100 and then press Enter.",Study/JOL,"Study Phase2",154,,,70,113,,,,76,1
w10164530_bam,ozeuq936g4,"Mediated JOLs",1,147,2024-02-13T02:08:59+00:00,0.2281539440155,2,versionA_stim.csv,JOLVersion.csv,JOL,JOL1,CASH,LEG,Study2,U,105,92,JOL,User,-,"How likely are you to correctly recall the second item in the pair?|Type your response on a scale from 0-100 and then press Enter.",Study/JOL,"Study Phase2",123,,,-1,-1,,,,,1
w10164530_bam,ozeuq936g4,"Mediated JOLs",1,148,2024-02-13T02:08:59+00:00,0.21113991737366,2,versionA_stim.csv,JOLVersion.csv,JOL,JOL1,TRAP,CAVE,Study2,M,70,70,JOL,User,-,"How likely are you to correctly recall the second item in the pair?|Type your response on a scale from 0-100 and then press Enter.",Study/JOL,"Study Phase2",108,,,96,96,,,,7,1
w10164530_bam,ozeuq936g4,"Mediated JOLs",1,149,2024-02-13T02:08:59+00:00,0.20940613746643,2,versionA_stim.csv,JOLVersion.csv,JOL,JOL1,ART,WOLF,Study2,U,93,76,JOL,User,-,"How likely are you to correctly recall the second item in the pair?|Type your response on a scale from 0-100 and then press Enter.",Study/JOL,"Study Phase2",108,,,-1,-1,,,,,1
w10164530_bam,ozeuq936g4,"Mediated JOLs",1,150,2024-02-13T02:08:59+00:00,0.3032009601593,2,versionA_stim.csv,JOLVersion.csv,JOL,JOL1,HORNET,STING,Study2,F,85,91,JOL,User,-,"How likely are you to correctly recall the second item in the pair?|Type your response on a scale from 0-100 and then press Enter.",Study/JOL,"Study Phase2",197,,,92,92,,,,6,1
w10164530_bam,ozeuq936g4,"Mediated JOLs",1,151,2024-02-13T02:09:00+00:00,0.22242999076843,2,versionA_stim.csv,JOLVersion.csv,JOL,JOL1,BOTH,OUNCE,Study2,U,102,101,JOL,User,-,"How likely are you to correctly recall the second item in the pair?|Type your response on a scale from 0-100 and then press Enter.",Study/JOL,"Study Phase2",96,,,-1,-1,,,,,1
w10164530_bam,ozeuq936g4,"Mediated JOLs",1,152,2024-02-13T02:09:00+00:00,0.27008605003357,2,versionA_stim.csv,JOLVersion.csv,JOL,JOL1,CHISEL,HAMMER,Study2,F,78,104,JOL,User,-,"How likely are you to correctly recall the second item in the pair?|Type your response on a scale from 0-100 and then press Enter.",Study/JOL,"Study Phase2",172,,,64,73,,,,67,1
w10164530_bam,ozeuq936g4,"Mediated JOLs",1,153,2024-02-13T02:09:00+00:00,0.26910281181335,2,versionA_stim.csv,JOLVersion.csv,JOL,JOL1,ATTIRE,CLOTHES,Study2,F,79,69,JOL,User,-,"How likely are you to correctly recall the second item in the pair?|Type your response on a scale from 0-100 and then press Enter.",Study/JOL,"Study Phase2",166,,,-1,-1,,,,,1
w10164530_bam,ozeuq936g4,"Mediated JOLs",1,154,2024-02-13T02:09:00+00:00,0.31943702697754,2,versionA_stim.csv,JOLVersion.csv,JOL,JOL1,SICK,HIDE,Study2,U,100,86,JOL,User,-,"How likely are you to correctly recall the second item in the pair?|Type your response on a scale from 0-100 and then press Enter.",Study/JOL,"Study Phase2",204,,,97,97,,,,7,1
w10164530_bam,ozeuq936g4,"Mediated JOLs",1,155,2024-02-13T02:09:01+00:00,0.20616912841797,2,versionA_stim.csv,JOLVersion.csv,JOL,JOL1,LEAGUE,BASEBALL,Study2,F,84,67,JOL,User,-,"How likely are you to correctly recall the second item in the pair?|Type your response on a scale from 0-100 and then press Enter.",Study/JOL,"Study Phase2",109,,,-1,-1,,,,,1
w10164530_bam,ozeuq936g4,"Mediated JOLs",1,156,2024-02-13T02:09:01+00:00,0.20718288421631,2,versionA_stim.csv,JOLVersion.csv,JOL,JOL1,NURSE,LAWYER,Study2,M,66,105,JOL,User,-,"How likely are you to correctly recall the second item in the pair?|Type your response on a scale from 0-100 and then press Enter.",Study/JOL,"Study Phase2",105,,,-1,-1,,,,,1
w10164530_bam,ozeuq936g4,"Mediated JOLs",1,157,2024-02-13T02:09:01+00:00,0.20347499847412,2,versionA_stim.csv,JOLVersion.csv,JOL,JOL1,OVEN,BASKET,Study2,M,71,79,JOL,User,-,"How likely are you to correctly recall the second item in the pair?|Type your response on a scale from 0-100 and then press Enter.",Study/JOL,"Study Phase2",105,,,-1,-1,,,,,1
w10164530_bam,ozeuq936g4,"Mediated JOLs",1,158,2024-02-13T02:09:01+00:00,0.20818305015564,2,versionA_stim.csv,JOLVersion.csv,JOL,JOL1,DEATH,BUSINESS,Study2,U,99,94,JOL,User,-,"How likely are you to correctly recall the second item in the pair?|Type your response on a scale from 0-100 and then press Enter.",Study/JOL,"Study Phase2",107,,,-1,-1,,,,,1
w10164530_bam,ozeuq936g4,"Mediated JOLs",1,159,2024-02-13T02:09:02+00:00,0.31017899513245,2,versionA_stim.csv,JOLVersion.csv,JOL,JOL1,DIETARY,SACK,Study2,U,97,74,JOL,User,-,"How likely are you to correctly recall the second item in the pair?|Type your response on a scale from 0-100 and then press Enter.",Study/JOL,"Study Phase2",206,,,-1,-1,,,,,1
w10164530_bam,ozeuq936g4,"Mediated JOLs",1,160,2024-02-13T02:09:02+00:00,0.26222991943359,2,versionA_stim.csv,JOLVersion.csv,JOL,JOL1,EYES,SMELL,Study2,M,65,72,JOL,User,-,"How likely are you to correctly recall the second item in the pair?|Type your response on a scale from 0-100 and then press Enter.",Study/JOL,"Study Phase2",153,,,-1,-1,,,,,1
w10164530_bam,ozeuq936g4,"Mediated JOLs",1,161,2024-02-13T02:09:02+00:00,0.31593418121338,2,versionA_stim.csv,JOLVersion.csv,JOL,JOL1,CHOP,CUT,Study2,F,77,81,JOL,User,-,"How likely are you to correctly recall the second item in the pair?|Type your response on a scale from 0-100 and then press Enter.",Study/JOL,"Study Phase2",209,,,104,153,,,,67,1
w10164530_bam,ozeuq936g4,"Mediated JOLs",1,162,2024-02-13T02:09:02+00:00,0.22746682167053,2,versionA_stim.csv,JOLVersion.csv,JOL,JOL1,TOOL,SHED,BUFFER3,Buffer,58,57,JOL,User,-,"How likely are you to correctly recall the second item in the pair?|Type your response on a scale from 0-100 and then press Enter.",Study/JOL,BUFFER2,110,,,80,80,,,,6,1
w10164530_bam,ozeuq936g4,"Mediated JOLs",1,163,2024-02-13T02:09:03+00:00,0.31417417526245,2,versionA_stim.csv,JOLVersion.csv,JOL,JOL1,SPRING,MARCH,BUFFER3,Buffer,59,59,JOL,User,-,"How likely are you to correctly recall the second item in the pair?|Type your response on a scale from 0-100 and then press Enter.",Study/JOL,BUFFER2,206,,,93,93,,,,6,1
w10164530_bam,ozeuq936g4,"Mediated JOLs",1,164,2024-02-13T02:09:03+00:00,0.19268679618835,2,versionA_stim.csv,JOLVersion.csv,JOL,JOL1,ICE,FROZEN,BUFFER4,Buffer,109,110,JOL,User,-,"How likely are you to correctly recall the second item in the pair?|Type your response on a scale from 0-100 and then press Enter.",Study/JOL,BUFFER2,88,,,76,76,,,,6,1
w10164530_bam,ozeuq936g4,"Mediated JOLs",1,165,2024-02-13T02:09:03+00:00,0.18796801567078,2,versionA_stim.csv,JOLVersion.csv,JOL,JOL1,CARROT,POTATO,BUFFER4,Buffer,106,107,JOL,User,-,"How likely are you to correctly recall the second item in the pair?|Type your response on a scale from 0-100 and then press Enter.",Study/JOL,BUFFER2,82,,,-1,-1,,,,,1
w10164530_bam,ozeuq936g4,"Mediated JOLs",1,166,2024-02-13T02:09:03+00:00,0.18776512145996,2,versionA_stim.csv,JOLVersion.csv,JOL,JOL1,SHRIMP,FISH,BUFFER4,Buffer,108,111,JOL,User,-,"How likely are you to correctly recall the second item in the pair?|Type your response on a scale from 0-100 and then press Enter.",Study/JOL,BUFFER2,81,,,-1,-1,,,,,1
w10164530_bam,ozeuq936g4,"Mediated JOLs",1,167,2024-02-13T02:09:05+00:00,1.6614389419556,2,versionA_stim.csv,JOLVersion.csv,JOL,JOL1,,,,,,0,Instruct,User,-,"You have completed this section. Please press Enter.",Filler_Instruction,Instruct2,1540,,,-1,-1,,,,,1
w10164530_bam,ozeuq936g4,"Mediated JOLs",1,168,2024-02-13T02:12:04+00:00,179.28959703445,2,versionA_stim.csv,JOLVersion.csv,JOL,JOL1,,,,,,0,FreeRecall,120,120,"Please list the 50 US states in alphabetical order. The task will automatically advance to the next screen after two minutes.",,Filler1,120002,"Alabama Alaska Arizona Arkansas California Colorado Connecticut Delaware Florida Georgia Hawaii Idaho Illinois Indiana Iowa Kansas Kentucky Louisiana Maine Maryland Massachusetts Michigan Minnesota Mississippi Missouri Montana Nebraska Nevada New Hampshire New Jersey New Mexico New York North Carolina North Dakota Ohio Oklahoma Oregon Pennsylvania Rhode Island South Carolina South Dakota Tennessee Texas Utah Vermont Virginia Washington West Virginia Wisconsin Wyoming",0,-1,-1,0,0,,,1
w10164530_bam,ozeuq936g4,"Mediated JOLs",1,169,2024-02-13T02:12:15+00:00,11.079163074493,2,versionA_stim.csv,JOLVersion.csv,JOL,JOL1,,,,,,0,Instruct,-,10,"You will now be presented with the first word from each of the previously studied item pairs. Please type the missing word. If you do not know the word, you may guess or press Enter to skip forward to the next pair.",,Instruct3,10887,,,-1,-1,,,,,1
w10164530_bam,ozeuq936g4,"Mediated JOLs",1,170,2024-02-13T02:12:17+00:00,2.095165014267,2,versionA_stim.csv,JOLVersion.csv,JOL,JOL1,FEUD,FIGHT,Study2,F,86,88,Test,User,-,,Recall,Recall2,1941,,0,-1,-1,0,0,,,1
w10164530_bam,ozeuq936g4,"Mediated JOLs",1,171,2024-02-13T02:12:18+00:00,0.21604299545288,2,versionA_stim.csv,JOLVersion.csv,JOL,JOL1,DOCUMENT,PAPER,Study2,F,82,83,Test,User,-,,Recall,Recall2,86,,0,-1,-1,0,0,,,1
w10164530_bam,ozeuq936g4,"Mediated JOLs",1,172,2024-02-13T02:12:18+00:00,0.18770694732666,2,versionA_stim.csv,JOLVersion.csv,JOL,JOL1,CHISEL,HAMMER,Study2,F,78,104,Test,User,-,,Recall,Recall2,80,,0,-1,-1,0,0,,,1
w10164530_bam,ozeuq936g4,"Mediated JOLs",1,173,2024-02-13T02:12:18+00:00,0.18193697929382,2,versionA_stim.csv,JOLVersion.csv,JOL,JOL1,ARTERY,BRONZE,Study2,U,103,96,Test,User,-,,Recall,Recall2,82,,0,-1,-1,0,0,,,1
w10164530_bam,ozeuq936g4,"Mediated JOLs",1,174,2024-02-13T02:12:18+00:00,0.18305397033691,2,versionA_stim.csv,JOLVersion.csv,JOL,JOL1,SICK,HIDE,Study2,U,100,86,Test,User,-,,Recall,Recall2,70,,0,-1,-1,0,0,,,1
w10164530_bam,ozeuq936g4,"Mediated JOLs",1,175,2024-02-13T02:12:18+00:00,0.20391702651978,2,versionA_stim.csv,JOLVersion.csv,JOL,JOL1,SUGAR,RIDDLE,Study2,U,95,73,Test,User,-,,Recall,Recall2,72,,0,-1,-1,0,0,,,1
w10164530_bam,ozeuq936g4,"Mediated JOLs",1,176,2024-02-13T02:12:19+00:00,0.21502494812012,2,versionA_stim.csv,JOLVersion.csv,JOL,JOL1,ART,WOLF,Study2,U,93,76,Test,User,-,,Recall,Recall2,114,f,40,70,70,0,0,,,1
w10164530_bam,ozeuq936g4,"Mediated JOLs",1,177,2024-02-13T02:12:19+00:00,0.21206402778625,2,versionA_stim.csv,JOLVersion.csv,JOL,JOL1,NURSE,LAWYER,Study2,M,66,105,Test,User,-,,Recall,Recall2,111,,0,-1,-1,0,0,,,1
w10164530_bam,ozeuq936g4,"Mediated JOLs",1,178,2024-02-13T02:12:19+00:00,0.24623799324036,2,versionA_stim.csv,JOLVersion.csv,JOL,JOL1,CHERRY,RED,Study2,F,80,87,Test,User,-,,Recall,Recall2,137,,0,-1,-1,0,0,,,1
w10164530_bam,ozeuq936g4,"Mediated JOLs",1,179,2024-02-13T02:12:19+00:00,0.25494503974915,2,versionA_stim.csv,JOLVersion.csv,JOL,JOL1,STRONG,ACCIDENT,Study2,U,94,64,Test,User,-,,Recall,Recall2,151,,0,-1,-1,0,0,,,1
w10164530_bam,ozeuq936g4,"Mediated JOLs",1,180,2024-02-13T02:12:20+00:00,0.23509192466736,2,versionA_stim.csv,JOLVersion.csv,JOL,JOL1,LEASE,TOIL,Study2,U,101,68,Test,User,-,,Recall,Recall2,128,f,0,-1,-1,0,0,,,1
w10164530_bam,ozeuq936g4,"Mediated JOLs",1,181,2024-02-13T02:12:20+00:00,0.22383999824524,2,versionA_stim.csv,JOLVersion.csv,JOL,JOL1,HERD,COW,Study2,F,88,85,Test,User,-,,Recall,Recall2,120,,0,-1,-1,0,0,,,1
w10164530_bam,ozeuq936g4,"Mediated JOLs",1,182,2024-02-13T02:12:20+00:00,0.21511697769165,2,versionA_stim.csv,JOLVersion.csv,JOL,JOL1,HAPPY,CAR,Study2,U,92,99,Test,User,-,,Recall,Recall2,72,,0,-1,-1,0,0,,,1
w10164530_bam,ozeuq936g4,"Mediated JOLs",1,183,2024-02-13T02:12:20+00:00,0.22476315498352,2,versionA_stim.csv,JOLVersion.csv,JOL,JOL1,BOTH,OUNCE,Study2,U,102,101,Test,User,-,,Recall,Recall2,121,,0,-1,-1,0,0,,,1
w10164530_bam,ozeuq936g4,"Mediated JOLs",1,184,2024-02-13T02:12:20+00:00,0.27838397026062,2,versionA_stim.csv,JOLVersion.csv,JOL,JOL1,HEAVY,FEATHER,Study2,M,68,82,Test,User,-,,Recall,Recall2,135,f,25,94,94,0,0,,,1
w10164530_bam,ozeuq936g4,"Mediated JOLs",1,185,2024-02-13T02:12:21+00:00,0.28656888008118,2,versionA_stim.csv,JOLVersion.csv,JOL,JOL1,SOAP,DRINK,Study2,M,67,62,Test,User,-,,Recall,Recall2,185,f,0,165,165,0,0,,,1
w10164530_bam,ozeuq936g4,"Mediated JOLs",1,186,2024-02-13T02:12:21+00:00,0.22522711753845,2,versionA_stim.csv,JOLVersion.csv,JOL,JOL1,RAZOR,MUSCLE,Study2,M,75,89,Test,User,-,,Recall,Recall2,117,f,0,97,97,0,0,,,1
w10164530_bam,ozeuq936g4,"Mediated JOLs",1,187,2024-02-13T02:12:21+00:00,0.19344806671143,2,versionA_stim.csv,JOLVersion.csv,JOL,JOL1,OVEN,BASKET,Study2,M,71,79,Test,User,-,,Recall,Recall2,90,f,0,67,67,0,0,,,1
w10164530_bam,ozeuq936g4,"Mediated JOLs",1,188,2024-02-13T02:12:21+00:00,0.29410696029663,2,versionA_stim.csv,JOLVersion.csv,JOL,JOL1,EYES,SMELL,Study2,M,65,72,Test,User,-,,Recall,Recall2,180,ff,0,127,127,0,0,,,1
w10164530_bam,ozeuq936g4,"Mediated JOLs",1,189,2024-02-13T02:12:22+00:00,0.18546485900879,2,versionA_stim.csv,JOLVersion.csv,JOL,JOL1,RAKE,SEED,Study2,M,69,98,Test,User,-,,Recall,Recall2,83,,0,-1,-1,0,0,,,1
w10164530_bam,ozeuq936g4,"Mediated JOLs",1,190,2024-02-13T02:12:22+00:00,0.22667598724365,2,versionA_stim.csv,JOLVersion.csv,JOL,JOL1,BRIDGE,WATER,Study2,F,90,90,Test,User,-,,Recall,Recall2,113,f,0,67,67,0,0,,,1
w10164530_bam,ozeuq936g4,"Mediated JOLs",1,191,2024-02-13T02:12:22+00:00,0.19168210029602,2,versionA_stim.csv,JOLVersion.csv,JOL,JOL1,VALLEY,PEAK,Study2,M,73,100,Test,User,-,,Recall,Recall2,86,,0,-1,-1,0,0,,,1
w10164530_bam,ozeuq936g4,"Mediated JOLs",1,192,2024-02-13T02:12:22+00:00,0.23024201393127,2,versionA_stim.csv,JOLVersion.csv,JOL,JOL1,HORNET,STING,Study2,F,85,91,Test,User,-,,Recall,Recall2,119,,0,-1,-1,0,0,,,1
w10164530_bam,ozeuq936g4,"Mediated JOLs",1,193,2024-02-13T02:12:22+00:00,0.18785691261292,2,versionA_stim.csv,JOLVersion.csv,JOL,JOL1,CHOP,CUT,Study2,F,77,81,Test,User,-,,Recall,Recall2,86,,0,-1,-1,0,0,,,1
w10164530_bam,ozeuq936g4,"Mediated JOLs",1,194,2024-02-13T02:12:23+00:00,0.22789001464844,2,versionA_stim.csv,JOLVersion.csv,JOL,JOL1,GRILL,THIGH,Study2,M,72,80,Test,User,-,,Recall,Recall2,116,,0,-1,-1,0,0,,,1
w10164530_bam,ozeuq936g4,"Mediated JOLs",1,195,2024-02-13T02:12:23+00:00,0.19356393814087,2,versionA_stim.csv,JOLVersion.csv,JOL,JOL1,CASH,LEG,Study2,U,105,92,Test,User,-,,Recall,Recall2,85,,0,-1,-1,0,0,,,1
w10164530_bam,ozeuq936g4,"Mediated JOLs",1,196,2024-02-13T02:12:23+00:00,0.24995303153992,2,versionA_stim.csv,JOLVersion.csv,JOL,JOL1,KING,VASE,Study2,U,91,77,Test,User,-,,Recall,Recall2,147,f,0,58,58,0,0,,,1
w10164530_bam,ozeuq936g4,"Mediated JOLs",1,197,2024-02-13T02:12:23+00:00,0.1854829788208,2,versionA_stim.csv,JOLVersion.csv,JOL,JOL1,CHILL,COLD,Study2,F,87,66,Test,User,-,,Recall,Recall2,80,,0,-1,-1,0,0,,,1
w10164530_bam,ozeuq936g4,"Mediated JOLs",1,198,2024-02-13T02:12:24+00:00,0.18425703048706,2,versionA_stim.csv,JOLVersion.csv,JOL,JOL1,TRAP,CAVE,Study2,M,70,70,Test,User,-,,Recall,Recall2,81,,0,-1,-1,0,0,,,1
w10164530_bam,ozeuq936g4,"Mediated JOLs",1,199,2024-02-13T02:12:24+00:00,0.21852016448975,2,versionA_stim.csv,JOLVersion.csv,JOL,JOL1,DEATH,BUSINESS,Study2,U,99,94,Test,User,-,,Recall,Recall2,102,,0,-1,-1,0,0,,,1
w10164530_bam,ozeuq936g4,"Mediated JOLs",1,200,2024-02-13T02:12:24+00:00,0.31775498390198,2,versionA_stim.csv,JOLVersion.csv,JOL,JOL1,SUMMER,SNOW,Study2,M,61,97,Test,User,-,,Recall,Recall2,210,f,0,123,123,0,0,,,1
w10164530_bam,ozeuq936g4,"Mediated JOLs",1,201,2024-02-13T02:12:24+00:00,0.18901896476746,2,versionA_stim.csv,JOLVersion.csv,JOL,JOL1,BLAZE,FIRE,Study2,F,81,102,Test,User,-,,Recall,Recall2,80,,0,-1,-1,0,0,,,1
w10164530_bam,ozeuq936g4,"Mediated JOLs",1,202,2024-02-13T02:12:24+00:00,0.18597102165222,2,versionA_stim.csv,JOLVersion.csv,JOL,JOL1,INCENSE,SMELL,Study2,F,83,103,Test,User,-,,Recall,Recall2,77,,0,-1,-1,0,0,,,1
w10164530_bam,ozeuq936g4,"Mediated JOLs",1,203,2024-02-13T02:12:25+00:00,0.19179081916809,2,versionA_stim.csv,JOLVersion.csv,JOL,JOL1,REALITY,ISLAND,Study2,M,64,106,Test,User,-,,Recall,Recall2,86,,0,-1,-1,0,0,,,1
w10164530_bam,ozeuq936g4,"Mediated JOLs",1,204,2024-02-13T02:12:25+00:00,0.25526905059814,2,versionA_stim.csv,JOLVersion.csv,JOL,JOL1,PUSH,CLUTTER,Study2,U,96,78,Test,User,-,,Recall,Recall2,151,f,0,130,130,0,0,,,1
w10164530_bam,ozeuq936g4,"Mediated JOLs",1,205,2024-02-13T02:12:25+00:00,0.20577502250671,2,versionA_stim.csv,JOLVersion.csv,JOL,JOL1,LEAGUE,BASEBALL,Study2,F,84,67,Test,User,-,,Recall,Recall2,105,,0,-1,-1,0,0,,,1
w10164530_bam,ozeuq936g4,"Mediated JOLs",1,206,2024-02-13T02:12:25+00:00,0.22133612632751,2,versionA_stim.csv,JOLVersion.csv,JOL,JOL1,BENCH,HORN,Study2,U,98,84,Test,User,-,,Recall,Recall2,64,,0,-1,-1,0,0,,,1
w10164530_bam,ozeuq936g4,"Mediated JOLs",1,207,2024-02-13T02:12:26+00:00,0.27447581291199,2,versionA_stim.csv,JOLVersion.csv,JOL,JOL1,CACTUS,PLANT,Study2,F,76,63,Test,User,-,,Recall,Recall2,171,,0,-1,-1,0,0,,,1
w10164530_bam,ozeuq936g4,"Mediated JOLs",1,208,2024-02-13T02:12:26+00:00,0.21529698371887,2,versionA_stim.csv,JOLVersion.csv,JOL,JOL1,WASP,BUG,Study2,F,89,93,Test,User,-,,Recall,Recall2,91,,0,-1,-1,0,0,,,1
w10164530_bam,ozeuq936g4,"Mediated JOLs",1,209,2024-02-13T02:12:26+00:00,0.24858713150024,2,versionA_stim.csv,JOLVersion.csv,JOL,JOL1,MIRROR,CHILDREN,Study2,U,104,71,Test,User,-,,Recall,Recall2,146,,0,-1,-1,0,0,,,1
w10164530_bam,ozeuq936g4,"Mediated JOLs",1,210,2024-02-13T02:12:26+00:00,0.21806788444519,2,versionA_stim.csv,JOLVersion.csv,JOL,JOL1,DIETARY,SACK,Study2,U,97,74,Test,User,-,,Recall,Recall2,116,,0,-1,-1,0,0,,,1
w10164530_bam,ozeuq936g4,"Mediated JOLs",1,211,2024-02-13T02:12:26+00:00,0.21203112602234,2,versionA_stim.csv,JOLVersion.csv,JOL,JOL1,WINDOW,KNOB,Study2,M,74,75,Test,User,-,,Recall,Recall2,103,,0,-1,-1,0,0,,,1
w10164530_bam,ozeuq936g4,"Mediated JOLs",1,212,2024-02-13T02:12:27+00:00,0.21692204475403,2,versionA_stim.csv,JOLVersion.csv,JOL,JOL1,SCHOOL,STOP,Study2,M,62,65,Test,User,-,,Recall,Recall2,105,,0,-1,-1,0,0,,,1
w10164530_bam,ozeuq936g4,"Mediated JOLs",1,213,2024-02-13T02:12:27+00:00,0.28904700279236,2,versionA_stim.csv,JOLVersion.csv,JOL,JOL1,PANTS,COLLAR,Study2,M,63,95,Test,User,-,,Recall,Recall2,188,f,0,130,130,0,0,,,1
w10164530_bam,ozeuq936g4,"Mediated JOLs",1,214,2024-02-13T02:12:27+00:00,0.2282018661499,2,versionA_stim.csv,JOLVersion.csv,JOL,JOL1,ATTIRE,CLOTHES,Study2,F,79,69,Test,User,-,,Recall,Recall2,121,f,0,96,96,0,0,,,1
w10164530_bam,ozeuq936g4,"Mediated JOLs",1,215,2024-02-13T02:12:29+00:00,1.4280080795288,2,versionA_stim.csv,JOLVersion.csv,JOL,JOL1,,,,,,0,Instruct,User,-,"You have completed this section. Please press Enter.",,Instruct7,1311,,,-1,-1,,,,,1
w10164530_bam,ozeuq936g4,"Mediated JOLs",1,216,2024-02-13T02:12:30+00:00,1.6260960102081,2,versionA_stim.csv,JOLVersion.csv,JOL,JOL1,,,,,,0,Instruct,User,-,"The following screen will ask you a few questions abour your experience today. You must complete these questions to receive credit.",,Instruct8,1474,,,-1,-1,,,,,1
