Username,ID,ExperimentName,Session,Trial,Date,TimeDif,"Condition Number","Stimuli File","Order File","Condition Description","Condition Notes",Stimuli*Cue,Stimuli*Answer,Stimuli*Shuffle,"Stimuli*Stimuli Notes",Stimuli*Value,Procedure*Item,"Procedure*Trial Type","Procedure*Max Time","Procedure*Min Time",Procedure*Text,"Procedure*Procedure Notes",Procedure*Shuffle,Response*RT,Response*Response,Response*Accuracy,Response*RTfirst,Response*RTlast,Response*strictAcc,Response*lenientAcc,Response*focus,Response*JOL,Response*Focus
M20344322,jooq1j4ns3,"Mediated JOLs",1,1,2024-04-30T03:56:04+00:00,43.962473869324,2,versionA_stim.csv,JOLVersion.csv,JOL,JOL1,,,,,,0,Instruct,-,5,"In this section, you will be presented with a series of word pairs. Please study each word pair! Your memory will be tested!",Initial_Instruct,Instruct1,43691,,,-1,-1,,,,,1
M20344322,jooq1j4ns3,"Mediated JOLs",1,2,2024-04-30T03:58:13+00:00,129.10978412628,2,versionA_stim.csv,JOLVersion.csv,JOL,JOL1,,,,,,0,Instruct,-,10,"As you study, you will be asked to rate your ability to remember the second item in the pair if you were only shown the first at test. You will make these ratings using a 0 to 100 Scale.",,Instruct13,128833,,,-1,-1,,,,,1
M20344322,jooq1j4ns3,"Mediated JOLs",1,3,2024-04-30T03:58:29+00:00,15.610514879227,2,versionA_stim.csv,JOLVersion.csv,JOL,JOL1,,,,,,0,Instruct,-,10,"For example, if you are given the pair CAT - DOG, a rating of 0 indicates that you would not remember DOG at test, while a rating of 100 indicates full certainty that you would remember the word DOG at test.",,Instruct14,15502,,,-1,-1,,,,,1
M20344322,jooq1j4ns3,"Mediated JOLs",1,4,2024-04-30T03:58:51+00:00,22.491468906403,2,versionA_stim.csv,JOLVersion.csv,JOL,JOL1,,,,,,0,Instruct,-,10,"When making your ratings, it is criticial that you use the full range of the scale. You will be disqualified for only giving ratings of 0 or 100! After making your rating, press Enter to advance to the next pair.",,Instruct15,22389,,,-1,-1,,,,,1
M20344322,jooq1j4ns3,"Mediated JOLs",1,5,2024-04-30T03:58:54+00:00,2.7016520500183,2,versionA_stim.csv,JOLVersion.csv,JOL,JOL1,,,,,,0,Instruct,User,-,"You will now begin the study. Press Enter when you are ready to begin.",,Instruct16,2608,,,-1,-1,,,,,1
M20344322,jooq1j4ns3,"Mediated JOLs",1,6,2024-04-30T03:59:20+00:00,26.024863958359,2,versionA_stim.csv,JOLVersion.csv,JOL,JOL1,PEANUT,BUTTER,BUFFER1,Buffer,3,3,JOL,User,-,"How likely are you to correctly recall the second item in the pair?|Type your response on a scale from 0-100 and then press Enter.",Study/JOL,BUFFER,25930,,,25140,25622,,,,100,1
M20344322,jooq1j4ns3,"Mediated JOLs",1,7,2024-04-30T03:59:30+00:00,9.7942202091217,2,versionA_stim.csv,JOLVersion.csv,JOL,JOL1,PITCHER,CATCHER,BUFFER1,Buffer,2,4,JOL,User,-,"How likely are you to correctly recall the second item in the pair?|Type your response on a scale from 0-100 and then press Enter.",Study/JOL,BUFFER,9722,,,8968,9444,,,,100,1
M20344322,jooq1j4ns3,"Mediated JOLs",1,8,2024-04-30T03:59:37+00:00,7.2912139892578,2,versionA_stim.csv,JOLVersion.csv,JOL,JOL1,TREES,GREEN,BUFFER1,Buffer,1,6,JOL,User,-,"How likely are you to correctly recall the second item in the pair?|Type your response on a scale from 0-100 and then press Enter.",Study/JOL,BUFFER,7163,,,6431,6886,,,,100,1
M20344322,jooq1j4ns3,"Mediated JOLs",1,9,2024-04-30T03:59:45+00:00,7.6026728153229,2,versionA_stim.csv,JOLVersion.csv,JOL,JOL1,SCARE,FRIGHT,BUFFER1,Buffer,4,2,JOL,User,-,"How likely are you to correctly recall the second item in the pair?|Type your response on a scale from 0-100 and then press Enter.",Study/JOL,BUFFER,7515,,,6780,7270,,,,100,1
M20344322,jooq1j4ns3,"Mediated JOLs",1,10,2024-04-30T03:59:51+00:00,6.87073802948,2,versionA_stim.csv,JOLVersion.csv,JOL,JOL1,SPACE,JAM,BUFFER1,Buffer,5,5,JOL,User,-,"How likely are you to correctly recall the second item in the pair?|Type your response on a scale from 0-100 and then press Enter.",Study/JOL,BUFFER,6789,,,5925,6404,,,,100,1
M20344322,jooq1j4ns3,"Mediated JOLs",1,11,2024-04-30T03:59:59+00:00,7.5235979557037,2,versionA_stim.csv,JOLVersion.csv,JOL,JOL1,LISTEN,FICTION,Study1,U,44,26,JOL,User,-,"How likely are you to correctly recall the second item in the pair?|Type your response on a scale from 0-100 and then press Enter.",Study/JOL,"Study Phase",7434,,,6090,7086,,,,50,1
M20344322,jooq1j4ns3,"Mediated JOLs",1,12,2024-04-30T04:00:06+00:00,6.9572510719299,2,versionA_stim.csv,JOLVersion.csv,JOL,JOL1,TOOTH,HAIR,Study1,M,19,31,JOL,User,-,"How likely are you to correctly recall the second item in the pair?|Type your response on a scale from 0-100 and then press Enter.",Study/JOL,"Study Phase",6863,,,6108,6571,,,,100,1
M20344322,jooq1j4ns3,"Mediated JOLs",1,13,2024-04-30T04:00:39+00:00,32.768612146378,2,versionA_stim.csv,JOLVersion.csv,JOL,JOL1,CRY,BOTTLE,Study1,M,16,41,JOL,User,-,"How likely are you to correctly recall the second item in the pair?|Type your response on a scale from 0-100 and then press Enter.",Study/JOL,"Study Phase",32655,,,24768,25236,,,,100,1
M20344322,jooq1j4ns3,"Mediated JOLs",1,14,2024-04-30T04:00:46+00:00,7.0125238895416,2,versionA_stim.csv,JOLVersion.csv,JOL,JOL1,SHELL,SHAKE,Study1,U,43,48,JOL,User,-,"How likely are you to correctly recall the second item in the pair?|Type your response on a scale from 0-100 and then press Enter.",Study/JOL,"Study Phase",6751,,,6002,6496,,,,100,1
M20344322,jooq1j4ns3,"Mediated JOLs",1,15,2024-04-30T04:00:54+00:00,8.7600979804993,2,versionA_stim.csv,JOLVersion.csv,JOL,JOL1,MIRROR,MAROON,Study1,U,36,51,JOL,User,-,"How likely are you to correctly recall the second item in the pair?|Type your response on a scale from 0-100 and then press Enter.",Study/JOL,"Study Phase",8674,,,7742,8252,,,,100,1
M20344322,jooq1j4ns3,"Mediated JOLs",1,16,2024-04-30T04:01:04+00:00,9.1688189506531,2,versionA_stim.csv,JOLVersion.csv,JOL,JOL1,CEILING,CARPET,Study1,M,15,37,JOL,User,-,"How likely are you to correctly recall the second item in the pair?|Type your response on a scale from 0-100 and then press Enter.",Study/JOL,"Study Phase",9076,,,8272,8769,,,,100,1
M20344322,jooq1j4ns3,"Mediated JOLs",1,17,2024-04-30T04:01:12+00:00,8.3005790710449,2,versionA_stim.csv,JOLVersion.csv,JOL,JOL1,MULE,DONKEY,Study1,F,24,47,JOL,User,-,"How likely are you to correctly recall the second item in the pair?|Type your response on a scale from 0-100 and then press Enter.",Study/JOL,"Study Phase",8214,,,7428,7930,,,,100,1
M20344322,jooq1j4ns3,"Mediated JOLs",1,18,2024-04-30T04:01:21+00:00,9.5036299228668,2,versionA_stim.csv,JOLVersion.csv,JOL,JOL1,BEACH,BOX,Study1,M,7,13,JOL,User,-,"How likely are you to correctly recall the second item in the pair?|Type your response on a scale from 0-100 and then press Enter.",Study/JOL,"Study Phase",9404,,,8599,9101,,,,100,1
M20344322,jooq1j4ns3,"Mediated JOLs",1,19,2024-04-30T04:01:29+00:00,7.6105649471283,2,versionA_stim.csv,JOLVersion.csv,JOL,JOL1,TEMPERATURE,MORNING,Study1,U,48,20,JOL,User,-,"How likely are you to correctly recall the second item in the pair?|Type your response on a scale from 0-100 and then press Enter.",Study/JOL,"Study Phase",7461,,,6688,7205,,,,100,1
M20344322,jooq1j4ns3,"Mediated JOLs",1,20,2024-04-30T04:01:37+00:00,7.683934211731,2,versionA_stim.csv,JOLVersion.csv,JOL,JOL1,ROUGH,SILK,Study1,M,10,29,JOL,User,-,"How likely are you to correctly recall the second item in the pair?|Type your response on a scale from 0-100 and then press Enter.",Study/JOL,"Study Phase",7608,,,5891,7301,,,,100,1
M20344322,jooq1j4ns3,"Mediated JOLs",1,21,2024-04-30T04:01:44+00:00,7.273286819458,2,versionA_stim.csv,JOLVersion.csv,JOL,JOL1,LITTER,TRASH,Study1,F,21,39,JOL,User,-,"How likely are you to correctly recall the second item in the pair?|Type your response on a scale from 0-100 and then press Enter.",Study/JOL,"Study Phase",7196,,,6352,6848,,,,100,1
M20344322,jooq1j4ns3,"Mediated JOLs",1,22,2024-04-30T04:01:52+00:00,8.4609591960907,2,versionA_stim.csv,JOLVersion.csv,JOL,JOL1,SIP,DRINK,Study1,F,32,23,JOL,User,-,"How likely are you to correctly recall the second item in the pair?|Type your response on a scale from 0-100 and then press Enter.",Study/JOL,"Study Phase",8367,,,7600,8103,,,,100,1
M20344322,jooq1j4ns3,"Mediated JOLs",1,23,2024-04-30T04:02:05+00:00,12.377533912659,2,versionA_stim.csv,JOLVersion.csv,JOL,JOL1,TREE,SYRUP,Study1,M,11,35,JOL,User,-,"How likely are you to correctly recall the second item in the pair?|Type your response on a scale from 0-100 and then press Enter.",Study/JOL,"Study Phase",12275,,,2971,3375,,,,10,1
M20344322,jooq1j4ns3,"Mediated JOLs",1,24,2024-04-30T04:02:15+00:00,10.037206888199,2,versionA_stim.csv,JOLVersion.csv,JOL,JOL1,LION,STRIPES,Study1,M,6,8,JOL,User,-,"How likely are you to correctly recall the second item in the pair?|Type your response on a scale from 0-100 and then press Enter.",Study/JOL,"Study Phase",9962,,,8773,9237,,,,19,1
M20344322,jooq1j4ns3,"Mediated JOLs",1,25,2024-04-30T04:04:16+00:00,121.32706618309,2,versionA_stim.csv,JOLVersion.csv,JOL,JOL1,HORSE,WHEEL,Study1,M,14,49,JOL,User,-,"How likely are you to correctly recall the second item in the pair?|Type your response on a scale from 0-100 and then press Enter.",Study/JOL,"Study Phase",121001,,,120184,120682,,,,19,1
M20344322,jooq1j4ns3,"Mediated JOLs",1,26,2024-04-30T04:04:24+00:00,7.8267028331757,2,versionA_stim.csv,JOLVersion.csv,JOL,JOL1,BAT,BOUNCE,Study1,M,12,25,JOL,User,-,"How likely are you to correctly recall the second item in the pair?|Type your response on a scale from 0-100 and then press Enter.",Study/JOL,"Study Phase",7727,,,5614,7452,,,,50,1
M20344322,jooq1j4ns3,"Mediated JOLs",1,27,2024-04-30T04:04:31+00:00,6.6455500125885,2,versionA_stim.csv,JOLVersion.csv,JOL,JOL1,CAKE,HAND,Study1,U,49,24,JOL,User,-,"How likely are you to correctly recall the second item in the pair?|Type your response on a scale from 0-100 and then press Enter.",Study/JOL,"Study Phase",6562,,,5972,6328,,,,70,1
M20344322,jooq1j4ns3,"Mediated JOLs",1,28,2024-04-30T04:05:02+00:00,31.209104061127,2,versionA_stim.csv,JOLVersion.csv,JOL,JOL1,CRACKLE,ELECTION,Study1,U,39,32,JOL,User,-,"How likely are you to correctly recall the second item in the pair?|Type your response on a scale from 0-100 and then press Enter.",Study/JOL,"Study Phase",31100,,,29913,30211,,,,50,1
M20344322,jooq1j4ns3,"Mediated JOLs",1,29,2024-04-30T04:05:10+00:00,8.3909180164337,2,versionA_stim.csv,JOLVersion.csv,JOL,JOL1,ROOT,PLANT,Study1,F,25,16,JOL,User,-,"How likely are you to correctly recall the second item in the pair?|Type your response on a scale from 0-100 and then press Enter.",Study/JOL,"Study Phase",8281,,,7744,7990,,,,50,1
M20344322,jooq1j4ns3,"Mediated JOLs",1,30,2024-04-30T04:05:17+00:00,6.3671200275421,2,versionA_stim.csv,JOLVersion.csv,JOL,JOL1,MAZE,PHONE,Study1,U,42,43,JOL,User,-,"How likely are you to correctly recall the second item in the pair?|Type your response on a scale from 0-100 and then press Enter.",Study/JOL,"Study Phase",6271,,,5789,6015,,,,70,1
M20344322,jooq1j4ns3,"Mediated JOLs",1,31,2024-04-30T04:05:24+00:00,7.3878989219666,2,versionA_stim.csv,JOLVersion.csv,JOL,JOL1,WAGE,MONEY,Study1,F,22,40,JOL,User,-,"How likely are you to correctly recall the second item in the pair?|Type your response on a scale from 0-100 and then press Enter.",Study/JOL,"Study Phase",7299,,,6633,7026,,,,50,1
M20344322,jooq1j4ns3,"Mediated JOLs",1,32,2024-04-30T04:05:37+00:00,13.243477106094,2,versionA_stim.csv,JOLVersion.csv,JOL,JOL1,WEDDING,FINGER,Study1,M,17,9,JOL,User,-,"How likely are you to correctly recall the second item in the pair?|Type your response on a scale from 0-100 and then press Enter.",Study/JOL,"Study Phase",13142,,,12378,12849,,,,10,1
M20344322,jooq1j4ns3,"Mediated JOLs",1,33,2024-04-30T04:05:45+00:00,7.5017118453979,2,versionA_stim.csv,JOLVersion.csv,JOL,JOL1,MULE,DONKEY,Study1,F,30,45,JOL,User,-,"How likely are you to correctly recall the second item in the pair?|Type your response on a scale from 0-100 and then press Enter.",Study/JOL,"Study Phase",7376,,,6796,7114,,,,20,1
M20344322,jooq1j4ns3,"Mediated JOLs",1,34,2024-04-30T04:05:54+00:00,9.2455480098724,2,versionA_stim.csv,JOLVersion.csv,JOL,JOL1,WORD,SENTENCE,Study1,F,27,27,JOL,User,-,"How likely are you to correctly recall the second item in the pair?|Type your response on a scale from 0-100 and then press Enter.",Study/JOL,"Study Phase",8984,,,8572,8733,,,,90,1
M20344322,jooq1j4ns3,"Mediated JOLs",1,35,2024-04-30T04:06:02+00:00,7.9860651493073,2,versionA_stim.csv,JOLVersion.csv,JOL,JOL1,CIRCLE,DANCE,Study1,M,13,33,JOL,User,-,"How likely are you to correctly recall the second item in the pair?|Type your response on a scale from 0-100 and then press Enter.",Study/JOL,"Study Phase",7919,,,7266,7582,,,,80,1
M20344322,jooq1j4ns3,"Mediated JOLs",1,36,2024-04-30T04:06:09+00:00,6.8479218482971,2,versionA_stim.csv,JOLVersion.csv,JOL,JOL1,TUNA,FISH,Study1,F,35,15,JOL,User,-,"How likely are you to correctly recall the second item in the pair?|Type your response on a scale from 0-100 and then press Enter.",Study/JOL,"Study Phase",6755,,,6096,6452,,,,70,1
M20344322,jooq1j4ns3,"Mediated JOLs",1,37,2024-04-30T04:06:19+00:00,10.180093050003,2,versionA_stim.csv,JOLVersion.csv,JOL,JOL1,BIRTHDAY,PIE,Study1,M,9,38,JOL,User,-,"How likely are you to correctly recall the second item in the pair?|Type your response on a scale from 0-100 and then press Enter.",Study/JOL,"Study Phase",9965,,,9408,9661,,,,80,1
M20344322,jooq1j4ns3,"Mediated JOLs",1,38,2024-04-30T04:06:26+00:00,7.2580420970917,2,versionA_stim.csv,JOLVersion.csv,JOL,JOL1,MEAT,KEYS,Study1,U,41,7,JOL,User,-,"How likely are you to correctly recall the second item in the pair?|Type your response on a scale from 0-100 and then press Enter.",Study/JOL,"Study Phase",7104,,,6010,6846,,,,30,1
M20344322,jooq1j4ns3,"Mediated JOLs",1,39,2024-04-30T04:06:37+00:00,10.910069942474,2,versionA_stim.csv,JOLVersion.csv,JOL,JOL1,STRETCH,CLOTH,Study1,U,37,36,JOL,User,-,"How likely are you to correctly recall the second item in the pair?|Type your response on a scale from 0-100 and then press Enter.",Study/JOL,"Study Phase",10805,,,10250,10546,,,,50,1
M20344322,jooq1j4ns3,"Mediated JOLs",1,40,2024-04-30T04:06:46+00:00,8.7986190319061,2,versionA_stim.csv,JOLVersion.csv,JOL,JOL1,ORCHID,FLOWER,Study1,F,34,19,JOL,User,-,"How likely are you to correctly recall the second item in the pair?|Type your response on a scale from 0-100 and then press Enter.",Study/JOL,"Study Phase",8703,,,6779,6987,,,,80,1
M20344322,jooq1j4ns3,"Mediated JOLs",1,41,2024-04-30T04:06:53+00:00,6.8839709758759,2,versionA_stim.csv,JOLVersion.csv,JOL,JOL1,SCALP,HEAD,Study1,F,23,21,JOL,User,-,"How likely are you to correctly recall the second item in the pair?|Type your response on a scale from 0-100 and then press Enter.",Study/JOL,"Study Phase",6788,,,5705,5852,,,,90,1
M20344322,jooq1j4ns3,"Mediated JOLs",1,42,2024-04-30T04:07:00+00:00,6.8519129753113,2,versionA_stim.csv,JOLVersion.csv,JOL,JOL1,VEHICLE,CHARM,Study1,U,40,10,JOL,User,-,"How likely are you to correctly recall the second item in the pair?|Type your response on a scale from 0-100 and then press Enter.",Study/JOL,"Study Phase",6770,,,6286,6499,,,,70,1
M20344322,jooq1j4ns3,"Mediated JOLs",1,43,2024-04-30T04:07:06+00:00,5.9653129577637,2,versionA_stim.csv,JOLVersion.csv,JOL,JOL1,CREDIT,CARD,Study1,F,33,17,JOL,User,-,"How likely are you to correctly recall the second item in the pair?|Type your response on a scale from 0-100 and then press Enter.",Study/JOL,"Study Phase",5878,,,5346,5622,,,,60,1
M20344322,jooq1j4ns3,"Mediated JOLs",1,44,2024-04-30T04:07:12+00:00,6.1270580291748,2,versionA_stim.csv,JOLVersion.csv,JOL,JOL1,NAP,SLEEP,Study1,F,29,42,JOL,User,-,"How likely are you to correctly recall the second item in the pair?|Type your response on a scale from 0-100 and then press Enter.",Study/JOL,"Study Phase",6032,,,5089,5542,,,,100,1
M20344322,jooq1j4ns3,"Mediated JOLs",1,45,2024-04-30T04:07:18+00:00,5.8065690994263,2,versionA_stim.csv,JOLVersion.csv,JOL,JOL1,GIVE,STEAK,Study1,U,38,14,JOL,User,-,"How likely are you to correctly recall the second item in the pair?|Type your response on a scale from 0-100 and then press Enter.",Study/JOL,"Study Phase",5722,,,5104,5259,,,,80,1
M20344322,jooq1j4ns3,"Mediated JOLs",1,46,2024-04-30T04:07:23+00:00,5.7501339912415,2,versionA_stim.csv,JOLVersion.csv,JOL,JOL1,KEYS,ROD,Study1,U,45,46,JOL,User,-,"How likely are you to correctly recall the second item in the pair?|Type your response on a scale from 0-100 and then press Enter.",Study/JOL,"Study Phase",5646,,,4735,4973,,,,50,1
M20344322,jooq1j4ns3,"Mediated JOLs",1,47,2024-04-30T04:07:29+00:00,5.4092409610748,2,versionA_stim.csv,JOLVersion.csv,JOL,JOL1,DAY,DARK,Study1,M,18,28,JOL,User,-,"How likely are you to correctly recall the second item in the pair?|Type your response on a scale from 0-100 and then press Enter.",Study/JOL,"Study Phase",5325,,,4992,5128,,,,90,1
M20344322,jooq1j4ns3,"Mediated JOLs",1,48,2024-04-30T04:07:39+00:00,10.468505859375,2,versionA_stim.csv,JOLVersion.csv,JOL,JOL1,HARD,COTTON,Study1,M,20,12,JOL,User,-,"How likely are you to correctly recall the second item in the pair?|Type your response on a scale from 0-100 and then press Enter.",Study/JOL,"Study Phase",10392,,,9877,10042,,,,90,1
M20344322,jooq1j4ns3,"Mediated JOLs",1,49,2024-04-30T04:08:03+00:00,23.436248064041,2,versionA_stim.csv,JOLVersion.csv,JOL,JOL1,SIGN,TICK,Study1,U,47,50,JOL,User,-,"How likely are you to correctly recall the second item in the pair?|Type your response on a scale from 0-100 and then press Enter.",Study/JOL,"Study Phase",23338,,,22945,23077,,,,50,1
M20344322,jooq1j4ns3,"Mediated JOLs",1,50,2024-04-30T04:08:09+00:00,6.7578530311584,2,versionA_stim.csv,JOLVersion.csv,JOL,JOL1,WAR,QUIET,Study1,M,8,18,JOL,User,-,"How likely are you to correctly recall the second item in the pair?|Type your response on a scale from 0-100 and then press Enter.",Study/JOL,"Study Phase",6644,,,6160,6378,,,,80,1
M20344322,jooq1j4ns3,"Mediated JOLs",1,51,2024-04-30T04:08:18+00:00,8.1390719413757,2,versionA_stim.csv,JOLVersion.csv,JOL,JOL1,SWAN,BIRD,Study1,F,26,34,JOL,User,-,"How likely are you to correctly recall the second item in the pair?|Type your response on a scale from 0-100 and then press Enter.",Study/JOL,"Study Phase",8046,,,7691,7776,,,,70,1
M20344322,jooq1j4ns3,"Mediated JOLs",1,52,2024-04-30T04:08:23+00:00,5.8350989818573,2,versionA_stim.csv,JOLVersion.csv,JOL,JOL1,SOON,BELT,Study1,U,46,44,JOL,User,-,"How likely are you to correctly recall the second item in the pair?|Type your response on a scale from 0-100 and then press Enter.",Study/JOL,"Study Phase",5738,,,5398,5473,,,,80,1
M20344322,jooq1j4ns3,"Mediated JOLs",1,53,2024-04-30T04:08:30+00:00,6.7590479850769,2,versionA_stim.csv,JOLVersion.csv,JOL,JOL1,AFFECTION,LOVE,Study1,F,31,22,JOL,User,-,"How likely are you to correctly recall the second item in the pair?|Type your response on a scale from 0-100 and then press Enter.",Study/JOL,"Study Phase",6656,,,6328,6399,,,,70,1
M20344322,jooq1j4ns3,"Mediated JOLs",1,54,2024-04-30T04:08:38+00:00,7.4648580551147,2,versionA_stim.csv,JOLVersion.csv,JOL,JOL1,FUZZY,BANG,Study1,U,50,11,JOL,User,-,"How likely are you to correctly recall the second item in the pair?|Type your response on a scale from 0-100 and then press Enter.",Study/JOL,"Study Phase",7381,,,7037,7090,,,,90,1
M20344322,jooq1j4ns3,"Mediated JOLs",1,55,2024-04-30T04:08:45+00:00,6.8662080764771,2,versionA_stim.csv,JOLVersion.csv,JOL,JOL1,HYGIENE,CLEAN,Study1,F,28,30,JOL,User,-,"How likely are you to correctly recall the second item in the pair?|Type your response on a scale from 0-100 and then press Enter.",Study/JOL,"Study Phase",6775,,,6263,6545,,,,100,1
M20344322,jooq1j4ns3,"Mediated JOLs",1,56,2024-04-30T04:08:50+00:00,5.0952389240265,2,versionA_stim.csv,JOLVersion.csv,JOL,JOL1,MOON,SPACE,BUFFER2,Buffer,54,53,JOL,User,-,"How likely are you to correctly recall the second item in the pair?|Type your response on a scale from 0-100 and then press Enter.",Study/JOL,BUFFER2,5005,,,4639,4761,,,,70,1
M20344322,jooq1j4ns3,"Mediated JOLs",1,57,2024-04-30T04:08:56+00:00,5.9276371002197,2,versionA_stim.csv,JOLVersion.csv,JOL,JOL1,DAYS,WEAKS,BUFFER3,Buffer,56,57,JOL,User,-,"How likely are you to correctly recall the second item in the pair?|Type your response on a scale from 0-100 and then press Enter.",Study/JOL,BUFFER2,5841,,,5531,5614,,,,70,1
M20344322,jooq1j4ns3,"Mediated JOLs",1,58,2024-04-30T04:09:00+00:00,4.8774950504303,2,versionA_stim.csv,JOLVersion.csv,JOL,JOL1,TOOL,SHED,BUFFER3,Buffer,58,61,JOL,User,-,"How likely are you to correctly recall the second item in the pair?|Type your response on a scale from 0-100 and then press Enter.",Study/JOL,BUFFER2,4763,,,4455,4513,,,,70,1
M20344322,jooq1j4ns3,"Mediated JOLs",1,59,2024-04-30T04:09:09+00:00,8.393373966217,2,versionA_stim.csv,JOLVersion.csv,JOL,JOL1,NOODLE,STRING,BUFFER4,Buffer,107,108,JOL,User,-,"How likely are you to correctly recall the second item in the pair?|Type your response on a scale from 0-100 and then press Enter.",Study/JOL,BUFFER2,8302,,,7924,8015,,,,80,1
M20344322,jooq1j4ns3,"Mediated JOLs",1,60,2024-04-30T04:09:17+00:00,8.5243239402771,2,versionA_stim.csv,JOLVersion.csv,JOL,JOL1,ICE,FROZEN,BUFFER4,Buffer,109,110,JOL,User,-,"How likely are you to correctly recall the second item in the pair?|Type your response on a scale from 0-100 and then press Enter.",Study/JOL,BUFFER2,8432,,,8059,8159,,,,60,1
M20344322,jooq1j4ns3,"Mediated JOLs",1,61,2024-04-30T04:09:19+00:00,1.2849500179291,2,versionA_stim.csv,JOLVersion.csv,JOL,JOL1,,,,,,0,Instruct,User,-,"You have completed this section. Please press Enter.",Filler_Instruction,Instruct2,1197,,,-1,-1,,,,,1
M20344322,jooq1j4ns3,"Mediated JOLs",1,62,2024-04-30T04:11:51+00:00,152.28094100952,2,versionA_stim.csv,JOLVersion.csv,JOL,JOL1,,,,,,0,FreeRecall,120,120,"Please list the 50 US states in alphabetical order. The task will automatically advance to the next screen after two minutes.",,Filler1,152058,"Sure, here they are: 1. Alabama 2. Alaska 3. Arizona 4. Arkansas 5. California 6. Colorado 7. Connecticut 8. Delaware 9. Florida 10. Georgia 11. Hawaii 12. Idaho 13. Illinois 14. Indiana 15. Iowa 16. Kansas 17. Kentucky 18. Louisiana 19. Maine 20. Maryland 21. Massachusetts 22. Michigan 23. Minnesota 24. Mississippi 25. Missouri 26. Montana 27. Nebraska 28. Nevada 29. New Hampshire 30. New Jersey 31. New Mexico 32. New York 33. North Carolina 34. North Dakota 35. Ohio 36. Oklahoma 37. Oregon 38. Pennsylvania 39. Rhode Island 40. South Carolina 41. South Dakota 42. Tennessee 43. Texas 44. Utah 45. Vermont 46. Virginia 47. Washington 48. West Virginia 49. Wisconsin 50. Wyoming",0,-1,-1,0,0,,,0.79
M20344322,jooq1j4ns3,"Mediated JOLs",1,63,2024-04-30T04:12:18+00:00,26.661592006683,2,versionA_stim.csv,JOLVersion.csv,JOL,JOL1,,,,,,0,Instruct,-,10,"You will now be presented with the first word from each of the previously studied item pairs. Please type the missing word. If you do not know the word, you may guess or press Enter to skip forward to the next pair.",,Instruct3,26542,,,-1,-1,,,,,1
M20344322,jooq1j4ns3,"Mediated JOLs",1,64,2024-04-30T04:12:54+00:00,36.296658039093,2,versionA_stim.csv,JOLVersion.csv,JOL,JOL1,FUZZY,BANG,Study1,U,50,11,Test,User,-,,Recall,Recall1,36189,bang,100,35015,36098,1,1,,,1
M20344322,jooq1j4ns3,"Mediated JOLs",1,65,2024-04-30T04:13:45+00:00,50.8468978405,2,versionA_stim.csv,JOLVersion.csv,JOL,JOL1,BIRTHDAY,PIE,Study1,M,9,38,Test,User,-,,Recall,Recall1,50671,pie,100,12645,13707,1,1,,,1
M20344322,jooq1j4ns3,"Mediated JOLs",1,66,2024-04-30T04:16:36+00:00,171.41165709496,2,versionA_stim.csv,JOLVersion.csv,JOL,JOL1,VEHICLE,CHARM,Study1,U,40,10,Test,User,-,,Recall,Recall1,171042,charm,100,169797,170471,1,1,,,1
M20344322,jooq1j4ns3,"Mediated JOLs",1,67,2024-04-30T04:16:40+00:00,3.9305858612061,2,versionA_stim.csv,JOLVersion.csv,JOL,JOL1,NAP,SLEEP,Study1,F,29,42,Test,User,-,,Recall,Recall1,3819,sleep,100,1954,2321,1,1,,,1
M20344322,jooq1j4ns3,"Mediated JOLs",1,68,2024-04-30T04:16:50+00:00,9.4641170501709,2,versionA_stim.csv,JOLVersion.csv,JOL,JOL1,WORD,SENTENCE,Study1,F,27,27,Test,User,-,,Recall,Recall1,9373,,0,-1,-1,0,0,,,1
M20344322,jooq1j4ns3,"Mediated JOLs",1,69,2024-04-30T04:17:09+00:00,19.707286119461,2,versionA_stim.csv,JOLVersion.csv,JOL,JOL1,CRACKLE,ELECTION,Study1,U,39,32,Test,User,-,,Recall,Recall1,19599,election,100,18301,19361,1,1,,,1
M20344322,jooq1j4ns3,"Mediated JOLs",1,70,2024-04-30T04:17:18+00:00,8.4913849830627,2,versionA_stim.csv,JOLVersion.csv,JOL,JOL1,SOON,BELT,Study1,U,46,44,Test,User,-,,Recall,Recall1,8105,belt,100,7208,7821,1,1,,,1
M20344322,jooq1j4ns3,"Mediated JOLs",1,71,2024-04-30T04:17:40+00:00,22.514224052429,2,versionA_stim.csv,JOLVersion.csv,JOL,JOL1,MIRROR,MAROON,Study1,U,36,51,Test,User,-,,Recall,Recall1,22421,maroon,100,20703,22124,1,1,,,1
M20344322,jooq1j4ns3,"Mediated JOLs",1,72,2024-04-30T04:17:50+00:00,10.110493898392,2,versionA_stim.csv,JOLVersion.csv,JOL,JOL1,ORCHID,FLOWER,Study1,F,34,19,Test,User,-,,Recall,Recall1,10033,,0,-1,-1,0,0,,,1
M20344322,jooq1j4ns3,"Mediated JOLs",1,73,2024-04-30T04:17:53+00:00,3.0099511146545,2,versionA_stim.csv,JOLVersion.csv,JOL,JOL1,CIRCLE,DANCE,Study1,M,13,33,Test,User,-,,Recall,Recall1,2940,dance,100,2143,2766,1,1,,,1
M20344322,jooq1j4ns3,"Mediated JOLs",1,74,2024-04-30T04:18:03+00:00,9.3755679130554,2,versionA_stim.csv,JOLVersion.csv,JOL,JOL1,GIVE,STEAK,Study1,U,38,14,Test,User,-,,Recall,Recall1,9297,steak,100,8544,9095,1,1,,,1
M20344322,jooq1j4ns3,"Mediated JOLs",1,75,2024-04-30T04:18:13+00:00,10.487148046494,2,versionA_stim.csv,JOLVersion.csv,JOL,JOL1,ROUGH,SILK,Study1,M,10,29,Test,User,-,,Recall,Recall1,10401,silk,100,9799,10206,1,1,,,1
M20344322,jooq1j4ns3,"Mediated JOLs",1,76,2024-04-30T04:18:18+00:00,4.839409828186,2,versionA_stim.csv,JOLVersion.csv,JOL,JOL1,CREDIT,CARD,Study1,F,33,17,Test,User,-,,Recall,Recall1,4753,card,100,4052,4474,1,1,,,1
M20344322,jooq1j4ns3,"Mediated JOLs",1,77,2024-04-30T04:18:23+00:00,4.7200801372528,2,versionA_stim.csv,JOLVersion.csv,JOL,JOL1,SCALP,HEAD,Study1,F,23,21,Test,User,-,,Recall,Recall1,4634,head,100,2082,2466,1,1,,,1
M20344322,jooq1j4ns3,"Mediated JOLs",1,78,2024-04-30T04:18:44+00:00,21.599991083145,2,versionA_stim.csv,JOLVersion.csv,JOL,JOL1,LITTER,TRASH,Study1,F,21,39,Test,User,-,,Recall,Recall1,21483,trash,100,20392,20940,1,1,,,1
M20344322,jooq1j4ns3,"Mediated JOLs",1,79,2024-04-30T04:18:56+00:00,11.245748996735,2,versionA_stim.csv,JOLVersion.csv,JOL,JOL1,SIP,DRINK,Study1,F,32,23,Test,User,-,,Recall,Recall1,11157,drank,80,10383,10968,0,1,,,1
M20344322,jooq1j4ns3,"Mediated JOLs",1,80,2024-04-30T04:19:01+00:00,5.1964628696442,2,versionA_stim.csv,JOLVersion.csv,JOL,JOL1,HORSE,WHEEL,Study1,M,14,49,Test,User,-,,Recall,Recall1,5081,wheel,100,4415,4883,1,1,,,1
M20344322,jooq1j4ns3,"Mediated JOLs",1,81,2024-04-30T04:19:08+00:00,6.9397790431976,2,versionA_stim.csv,JOLVersion.csv,JOL,JOL1,DAY,DARK,Study1,M,18,28,Test,User,-,,Recall,Recall1,6853,dark,100,6049,6525,1,1,,,1
M20344322,jooq1j4ns3,"Mediated JOLs",1,82,2024-04-30T04:20:38+00:00,90.211613893509,2,versionA_stim.csv,JOLVersion.csv,JOL,JOL1,MAZE,PHONE,Study1,U,42,43,Test,User,-,,Recall,Recall1,89986,phone,100,89211,89805,1,1,,,1
M20344322,jooq1j4ns3,"Mediated JOLs",1,83,2024-04-30T04:20:56+00:00,17.97577214241,2,versionA_stim.csv,JOLVersion.csv,JOL,JOL1,CEILING,CARPET,Study1,M,15,37,Test,User,-,,Recall,Recall1,17859,,0,-1,-1,0,0,,,1
M20344322,jooq1j4ns3,"Mediated JOLs",1,84,2024-04-30T04:21:02+00:00,6.0656590461731,2,versionA_stim.csv,JOLVersion.csv,JOL,JOL1,STRETCH,CLOTH,Study1,U,37,36,Test,User,-,,Recall,Recall1,5993,cloth,100,5206,5745,1,1,,,1
M20344322,jooq1j4ns3,"Mediated JOLs",1,85,2024-04-30T04:21:07+00:00,5.4694008827209,2,versionA_stim.csv,JOLVersion.csv,JOL,JOL1,SWAN,BIRD,Study1,F,26,34,Test,User,-,,Recall,Recall1,5379,bird,100,4419,5213,1,1,,,1
M20344322,jooq1j4ns3,"Mediated JOLs",1,86,2024-04-30T04:21:11+00:00,3.3676459789276,2,versionA_stim.csv,JOLVersion.csv,JOL,JOL1,KEYS,ROD,Study1,U,45,46,Test,User,-,,Recall,Recall1,3291,rod,100,2862,3119,1,1,,,1
M20344322,jooq1j4ns3,"Mediated JOLs",1,87,2024-04-30T04:21:20+00:00,8.6694700717926,2,versionA_stim.csv,JOLVersion.csv,JOL,JOL1,SHELL,SHAKE,Study1,U,43,48,Test,User,-,,Recall,Recall1,8570,shake,100,7938,8426,1,1,,,1
M20344322,jooq1j4ns3,"Mediated JOLs",1,88,2024-04-30T04:21:32+00:00,12.073287010193,2,versionA_stim.csv,JOLVersion.csv,JOL,JOL1,MEAT,KEYS,Study1,U,41,7,Test,User,-,,Recall,Recall1,11968,keys,100,11454,11891,1,1,,,1
M20344322,jooq1j4ns3,"Mediated JOLs",1,89,2024-04-30T04:21:35+00:00,3.4660949707031,2,versionA_stim.csv,JOLVersion.csv,JOL,JOL1,WEDDING,FINGER,Study1,M,17,9,Test,User,-,,Recall,Recall1,3393,fingee,83.333333333333,2499,3262,0,1,,,1
M20344322,jooq1j4ns3,"Mediated JOLs",1,90,2024-04-30T04:21:57+00:00,22.414448022842,2,versionA_stim.csv,JOLVersion.csv,JOL,JOL1,TEMPERATURE,MORNING,Study1,U,48,20,Test,User,-,,Recall,Recall1,22323,amny,36.363636363636,21591,22037,0,0,,,1
M20344322,jooq1j4ns3,"Mediated JOLs",1,91,2024-04-30T04:22:19+00:00,21.653656005859,2,versionA_stim.csv,JOLVersion.csv,JOL,JOL1,WAR,QUIET,Study1,M,8,18,Test,User,-,,Recall,Recall1,21537,quiet,100,20802,21241,1,1,,,1
M20344322,jooq1j4ns3,"Mediated JOLs",1,92,2024-04-30T04:23:49+00:00,89.610929012299,2,versionA_stim.csv,JOLVersion.csv,JOL,JOL1,LISTEN,FICTION,Study1,U,44,26,Test,User,-,,Recall,Recall1,88927,fiction,100,85301,88308,1,1,,,1
M20344322,jooq1j4ns3,"Mediated JOLs",1,93,2024-04-30T04:24:52+00:00,63.683961868286,2,versionA_stim.csv,JOLVersion.csv,JOL,JOL1,WAGE,MONEY,Study1,F,22,40,Test,User,-,,Recall,Recall1,63390,monkey,90.909090909091,61941,63081,0,1,,,1
M20344322,jooq1j4ns3,"Mediated JOLs",1,94,2024-04-30T04:24:57+00:00,4.9839851856232,2,versionA_stim.csv,JOLVersion.csv,JOL,JOL1,BAT,BOUNCE,Study1,M,12,25,Test,User,-,,Recall,Recall1,4875,bounce,100,2937,4076,1,1,,,1
M20344322,jooq1j4ns3,"Mediated JOLs",1,95,2024-04-30T04:25:23+00:00,25.239770889282,2,versionA_stim.csv,JOLVersion.csv,JOL,JOL1,AFFECTION,LOVE,Study1,F,31,22,Test,User,-,,Recall,Recall1,25145,love,100,23736,25025,1,1,,,1
M20344322,jooq1j4ns3,"Mediated JOLs",1,96,2024-04-30T04:25:31+00:00,8.5321640968323,2,versionA_stim.csv,JOLVersion.csv,JOL,JOL1,CRY,BOTTLE,Study1,M,16,41,Test,User,-,,Recall,Recall1,8448,,0,-1,-1,0,0,,,1
M20344322,jooq1j4ns3,"Mediated JOLs",1,97,2024-04-30T04:25:41+00:00,10.291509866714,2,versionA_stim.csv,JOLVersion.csv,JOL,JOL1,MULE,DONKEY,Study1,F,24,47,Test,User,-,,Recall,Recall1,10222,donkey,100,9179,9928,1,1,,,1
M20344322,jooq1j4ns3,"Mediated JOLs",1,98,2024-04-30T04:25:46+00:00,4.6993720531464,2,versionA_stim.csv,JOLVersion.csv,JOL,JOL1,MULE,DONKEY,Study1,F,30,45,Test,User,-,,Recall,Recall1,4615,donkey,100,2042,4262,1,1,,,1
M20344322,jooq1j4ns3,"Mediated JOLs",1,99,2024-04-30T04:26:29+00:00,43.12156701088,2,versionA_stim.csv,JOLVersion.csv,JOL,JOL1,CAKE,HAND,Study1,U,49,24,Test,User,-,,Recall,Recall1,43007,hand,100,42507,42863,1,1,,,1
M20344322,jooq1j4ns3,"Mediated JOLs",1,100,2024-04-30T04:26:32+00:00,2.4075820446014,2,versionA_stim.csv,JOLVersion.csv,JOL,JOL1,HYGIENE,CLEAN,Study1,F,28,30,Test,User,-,,Recall,Recall1,2293,clean,100,1567,2052,1,1,,,1
M20344322,jooq1j4ns3,"Mediated JOLs",1,101,2024-04-30T04:26:36+00:00,3.9971368312836,2,versionA_stim.csv,JOLVersion.csv,JOL,JOL1,BEACH,BOX,Study1,M,7,13,Test,User,-,,Recall,Recall1,3910,box,100,3438,3769,1,1,,,1
M20344322,jooq1j4ns3,"Mediated JOLs",1,102,2024-04-30T04:26:38+00:00,2.5979092121124,2,versionA_stim.csv,JOLVersion.csv,JOL,JOL1,ROOT,PLANT,Study1,F,25,16,Test,User,-,,Recall,Recall1,2499,house,0,1769,2411,0,0,,,1
M20344322,jooq1j4ns3,"Mediated JOLs",1,103,2024-04-30T04:26:45+00:00,6.222473859787,2,versionA_stim.csv,JOLVersion.csv,JOL,JOL1,TOOTH,HAIR,Study1,M,19,31,Test,User,-,,Recall,Recall1,6144,hair,100,4280,5948,1,1,,,1
M20344322,jooq1j4ns3,"Mediated JOLs",1,104,2024-04-30T04:26:59+00:00,14.797099113464,2,versionA_stim.csv,JOLVersion.csv,JOL,JOL1,HARD,COTTON,Study1,M,20,12,Test,User,-,,Recall,Recall1,14711,hu,0,14201,14385,0,0,,,1
M20344322,jooq1j4ns3,"Mediated JOLs",1,105,2024-04-30T04:27:17+00:00,17.410367012024,2,versionA_stim.csv,JOLVersion.csv,JOL,JOL1,SIGN,TICK,Study1,U,47,50,Test,User,-,,Recall,Recall1,17331,,0,-1,-1,0,0,,,1
M20344322,jooq1j4ns3,"Mediated JOLs",1,106,2024-04-30T04:27:21+00:00,4.3803079128265,2,versionA_stim.csv,JOLVersion.csv,JOL,JOL1,LION,STRIPES,Study1,M,6,8,Test,User,-,,Recall,Recall1,4281,stripes,100,2793,4118,1,1,,,1
M20344322,jooq1j4ns3,"Mediated JOLs",1,107,2024-04-30T04:27:32+00:00,10.77498292923,2,versionA_stim.csv,JOLVersion.csv,JOL,JOL1,TUNA,FISH,Study1,F,35,15,Test,User,-,,Recall,Recall1,10203,fish,100,8260,9960,1,1,,,1
M20344322,jooq1j4ns3,"Mediated JOLs",1,108,2024-04-30T04:27:43+00:00,11.410025119781,2,versionA_stim.csv,JOLVersion.csv,JOL,JOL1,TREE,SYRUP,Study1,M,11,35,Test,User,-,,Recall,Recall1,11329,green,20,10571,11041,0,0,,,1
M20344322,jooq1j4ns3,"Mediated JOLs",1,109,2024-04-30T04:29:42+00:00,118.28687691689,2,versionA_stim.csv,JOLVersion.csv,JOL,JOL1,,,,,,0,Instruct,-,10,"You will now be presented with a new set of word pairs. Please study each pair. Remember that your memory will be tested! When finished, press Enter to move to the next pair.",Initial_Instruct,Instruct4,117969,,,-1,-1,,,,,0.379
M20344322,jooq1j4ns3,"Mediated JOLs",1,110,2024-04-30T04:30:44+00:00,62.862936019897,2,versionA_stim.csv,JOLVersion.csv,JOL,JOL1,,,,,,0,Instruct,,10,"You will again be asked to rate your ability to remember these items using a 0 to 100 scale. Remember to use the full range of the scale!",,Instruct10,62657,,,-1,-1,,,,,0.527
M20344322,jooq1j4ns3,"Mediated JOLs",1,111,2024-04-30T04:30:46+00:00,1.3660600185394,2,versionA_stim.csv,JOLVersion.csv,JOL,JOL1,,,,,,0,Instruct,User,-,"Press Enter when you are readty to begin",,Instruct11,1261,,,-1,-1,,,,,1
M20344322,jooq1j4ns3,"Mediated JOLs",1,112,2024-04-30T04:30:51+00:00,5.0532410144806,2,versionA_stim.csv,JOLVersion.csv,JOL,JOL1,SHRIMP,FISH,BUFFER4,Buffer,108,111,JOL,User,-,"How likely are you to correctly recall the second item in the pair?|Type your response on a scale from 0-100 and then press Enter.",Study/JOL,BUFFER2,4970,,,4472,4745,,,,100,1
M20344322,jooq1j4ns3,"Mediated JOLs",1,113,2024-04-30T04:31:12+00:00,21.558351993561,2,versionA_stim.csv,JOLVersion.csv,JOL,JOL1,CARROT,POTATO,BUFFER4,Buffer,106,109,JOL,User,-,"How likely are you to correctly recall the second item in the pair?|Type your response on a scale from 0-100 and then press Enter.",Study/JOL,BUFFER2,21478,,,965,1254,,,,100,1
M20344322,jooq1j4ns3,"Mediated JOLs",1,114,2024-04-30T04:31:18+00:00,5.8424770832062,2,versionA_stim.csv,JOLVersion.csv,JOL,JOL1,GEESE,GOOSE,BUFFER2,Buffer,51,55,JOL,User,-,"How likely are you to correctly recall the second item in the pair?|Type your response on a scale from 0-100 and then press Enter.",Study/JOL,BUFFER2,5759,,,-1,-1,,,,,1
M20344322,jooq1j4ns3,"Mediated JOLs",1,115,2024-04-30T04:31:31+00:00,12.885959863663,2,versionA_stim.csv,JOLVersion.csv,JOL,JOL1,OCTOBER,SPOOKY,BUFFER3,Buffer,60,59,JOL,User,-,"How likely are you to correctly recall the second item in the pair?|Type your response on a scale from 0-100 and then press Enter.",Study/JOL,BUFFER2,12801,,,1935,3547,,,,100,1
M20344322,jooq1j4ns3,"Mediated JOLs",1,116,2024-04-30T04:31:43+00:00,11.676723957062,2,versionA_stim.csv,JOLVersion.csv,JOL,JOL1,MALT,CHOCOLATE,BUFFER2,Buffer,53,56,JOL,User,-,"How likely are you to correctly recall the second item in the pair?|Type your response on a scale from 0-100 and then press Enter.",Study/JOL,BUFFER2,11580,,,8113,8708,,,,100,1
M20344322,jooq1j4ns3,"Mediated JOLs",1,117,2024-04-30T04:31:51+00:00,7.8536751270294,2,versionA_stim.csv,JOLVersion.csv,JOL,JOL1,FEUD,FIGHT,Study2,F,86,106,JOL,User,-,"How likely are you to correctly recall the second item in the pair?|Type your response on a scale from 0-100 and then press Enter.",Study/JOL,"Study Phase2",7755,,,6923,7520,,,,100,1
M20344322,jooq1j4ns3,"Mediated JOLs",1,118,2024-04-30T04:31:57+00:00,6.5177810192108,2,versionA_stim.csv,JOLVersion.csv,JOL,JOL1,BENCH,HORN,Study2,U,98,83,JOL,User,-,"How likely are you to correctly recall the second item in the pair?|Type your response on a scale from 0-100 and then press Enter.",Study/JOL,"Study Phase2",6424,,,5462,6057,,,,100,1
M20344322,jooq1j4ns3,"Mediated JOLs",1,119,2024-04-30T04:32:04+00:00,7.1429698467255,2,versionA_stim.csv,JOLVersion.csv,JOL,JOL1,CHERRY,RED,Study2,F,80,62,JOL,User,-,"How likely are you to correctly recall the second item in the pair?|Type your response on a scale from 0-100 and then press Enter.",Study/JOL,"Study Phase2",7058,,,6199,6813,,,,100,1
M20344322,jooq1j4ns3,"Mediated JOLs",1,120,2024-04-30T04:32:12+00:00,7.2764081954956,2,versionA_stim.csv,JOLVersion.csv,JOL,JOL1,BLAZE,FIRE,Study2,F,81,82,JOL,User,-,"How likely are you to correctly recall the second item in the pair?|Type your response on a scale from 0-100 and then press Enter.",Study/JOL,"Study Phase2",7199,,,6358,6943,,,,100,1
M20344322,jooq1j4ns3,"Mediated JOLs",1,121,2024-04-30T04:32:19+00:00,7.3267848491669,2,versionA_stim.csv,JOLVersion.csv,JOL,JOL1,PANTS,COLLAR,Study2,M,63,79,JOL,User,-,"How likely are you to correctly recall the second item in the pair?|Type your response on a scale from 0-100 and then press Enter.",Study/JOL,"Study Phase2",7231,,,6458,6989,,,,100,1
M20344322,jooq1j4ns3,"Mediated JOLs",1,122,2024-04-30T04:32:28+00:00,8.8125441074371,2,versionA_stim.csv,JOLVersion.csv,JOL,JOL1,REALITY,ISLAND,Study2,M,64,74,JOL,User,-,"How likely are you to correctly recall the second item in the pair?|Type your response on a scale from 0-100 and then press Enter.",Study/JOL,"Study Phase2",8723,,,7908,8511,,,,100,1
M20344322,jooq1j4ns3,"Mediated JOLs",1,123,2024-04-30T04:32:38+00:00,10.043318986893,2,versionA_stim.csv,JOLVersion.csv,JOL,JOL1,ARTERY,BRONZE,Study2,U,103,63,JOL,User,-,"How likely are you to correctly recall the second item in the pair?|Type your response on a scale from 0-100 and then press Enter.",Study/JOL,"Study Phase2",9747,,,7761,9468,,,,10,1
M20344322,jooq1j4ns3,"Mediated JOLs",1,124,2024-04-30T04:32:44+00:00,5.7794258594513,2,versionA_stim.csv,JOLVersion.csv,JOL,JOL1,HAPPY,CAR,Study2,U,92,68,JOL,User,-,"How likely are you to correctly recall the second item in the pair?|Type your response on a scale from 0-100 and then press Enter.",Study/JOL,"Study Phase2",5675,,,5274,5435,,,,90,1
M20344322,jooq1j4ns3,"Mediated JOLs",1,125,2024-04-30T04:32:51+00:00,7.1455581188202,2,versionA_stim.csv,JOLVersion.csv,JOL,JOL1,NURSE,LAWYER,Study2,M,66,78,JOL,User,-,"How likely are you to correctly recall the second item in the pair?|Type your response on a scale from 0-100 and then press Enter.",Study/JOL,"Study Phase2",7068,,,6557,6832,,,,70,1
M20344322,jooq1j4ns3,"Mediated JOLs",1,126,2024-04-30T04:33:00+00:00,9.368579864502,2,versionA_stim.csv,JOLVersion.csv,JOL,JOL1,OVEN,BASKET,Study2,M,71,84,JOL,User,-,"How likely are you to correctly recall the second item in the pair?|Type your response on a scale from 0-100 and then press Enter.",Study/JOL,"Study Phase2",9279,,,8075,8905,,,,90,1
M20344322,jooq1j4ns3,"Mediated JOLs",1,127,2024-04-30T04:35:11+00:00,131.35902309418,2,versionA_stim.csv,JOLVersion.csv,JOL,JOL1,HORNET,STING,Study2,F,85,101,JOL,User,-,"How likely are you to correctly recall the second item in the pair?|Type your response on a scale from 0-100 and then press Enter.",Study/JOL,"Study Phase2",131005,,,130230,130714,,,,100,0.492
M20344322,jooq1j4ns3,"Mediated JOLs",1,128,2024-04-30T04:35:20+00:00,8.2097671031952,2,versionA_stim.csv,JOLVersion.csv,JOL,JOL1,DIETARY,SACK,Study2,U,97,96,JOL,User,-,"How likely are you to correctly recall the second item in the pair?|Type your response on a scale from 0-100 and then press Enter.",Study/JOL,"Study Phase2",8124,,,7668,7872,,,,80,1
M20344322,jooq1j4ns3,"Mediated JOLs",1,129,2024-04-30T04:35:28+00:00,8.113009929657,2,versionA_stim.csv,JOLVersion.csv,JOL,JOL1,KING,VASE,Study2,U,91,64,JOL,User,-,"How likely are you to correctly recall the second item in the pair?|Type your response on a scale from 0-100 and then press Enter.",Study/JOL,"Study Phase2",8020,,,5553,7551,,,,80,1
M20344322,jooq1j4ns3,"Mediated JOLs",1,130,2024-04-30T04:35:34+00:00,6.1563670635223,2,versionA_stim.csv,JOLVersion.csv,JOL,JOL1,HERD,COW,Study2,F,88,65,JOL,User,-,"How likely are you to correctly recall the second item in the pair?|Type your response on a scale from 0-100 and then press Enter.",Study/JOL,"Study Phase2",6077,,,5606,5797,,,,80,1
M20344322,jooq1j4ns3,"Mediated JOLs",1,131,2024-04-30T04:35:43+00:00,8.6338789463043,2,versionA_stim.csv,JOLVersion.csv,JOL,JOL1,EYES,SMELL,Study2,M,65,105,JOL,User,-,"How likely are you to correctly recall the second item in the pair?|Type your response on a scale from 0-100 and then press Enter.",Study/JOL,"Study Phase2",8550,,,7988,8265,,,,60,1
M20344322,jooq1j4ns3,"Mediated JOLs",1,132,2024-04-30T04:35:51+00:00,8.6209690570831,2,versionA_stim.csv,JOLVersion.csv,JOL,JOL1,LEASE,TOIL,Study2,U,101,86,JOL,User,-,"How likely are you to correctly recall the second item in the pair?|Type your response on a scale from 0-100 and then press Enter.",Study/JOL,"Study Phase2",8490,,,8039,8220,,,,80,1
M20344322,jooq1j4ns3,"Mediated JOLs",1,133,2024-04-30T04:36:00+00:00,8.3235099315643,2,versionA_stim.csv,JOLVersion.csv,JOL,JOL1,PUSH,CLUTTER,Study2,U,96,104,JOL,User,-,"How likely are you to correctly recall the second item in the pair?|Type your response on a scale from 0-100 and then press Enter.",Study/JOL,"Study Phase2",8229,,,7070,7979,,,,70,1
M20344322,jooq1j4ns3,"Mediated JOLs",1,134,2024-04-30T04:36:07+00:00,6.9892308712006,2,versionA_stim.csv,JOLVersion.csv,JOL,JOL1,CHILL,COLD,Study2,F,87,67,JOL,User,-,"How likely are you to correctly recall the second item in the pair?|Type your response on a scale from 0-100 and then press Enter.",Study/JOL,"Study Phase2",6896,,,6383,6618,,,,70,1
M20344322,jooq1j4ns3,"Mediated JOLs",1,135,2024-04-30T04:36:13+00:00,6.7142281532288,2,versionA_stim.csv,JOLVersion.csv,JOL,JOL1,VALLEY,PEAK,Study2,M,73,102,JOL,User,-,"How likely are you to correctly recall the second item in the pair?|Type your response on a scale from 0-100 and then press Enter.",Study/JOL,"Study Phase2",6621,,,6181,6373,,,,80,1
M20344322,jooq1j4ns3,"Mediated JOLs",1,136,2024-04-30T04:36:21+00:00,7.4653940200806,2,versionA_stim.csv,JOLVersion.csv,JOL,JOL1,STRONG,ACCIDENT,Study2,U,94,95,JOL,User,-,"How likely are you to correctly recall the second item in the pair?|Type your response on a scale from 0-100 and then press Enter.",Study/JOL,"Study Phase2",7385,,,6980,7147,,,,80,1
M20344322,jooq1j4ns3,"Mediated JOLs",1,137,2024-04-30T04:36:28+00:00,7.0681698322296,2,versionA_stim.csv,JOLVersion.csv,JOL,JOL1,WINDOW,KNOB,Study2,M,74,88,JOL,User,-,"How likely are you to correctly recall the second item in the pair?|Type your response on a scale from 0-100 and then press Enter.",Study/JOL,"Study Phase2",6980,,,6541,6690,,,,90,1
M20344322,jooq1j4ns3,"Mediated JOLs",1,138,2024-04-30T04:36:36+00:00,8.4587922096252,2,versionA_stim.csv,JOLVersion.csv,JOL,JOL1,HEAVY,FEATHER,Study2,M,68,76,JOL,User,-,"How likely are you to correctly recall the second item in the pair?|Type your response on a scale from 0-100 and then press Enter.",Study/JOL,"Study Phase2",8362,,,7922,8108,,,,80,1
M20344322,jooq1j4ns3,"Mediated JOLs",1,139,2024-04-30T04:36:45+00:00,8.8510499000549,2,versionA_stim.csv,JOLVersion.csv,JOL,JOL1,DOCUMENT,PAPER,Study2,F,82,72,JOL,User,-,"How likely are you to correctly recall the second item in the pair?|Type your response on a scale from 0-100 and then press Enter.",Study/JOL,"Study Phase2",8769,,,8313,8526,,,,70,1
M20344322,jooq1j4ns3,"Mediated JOLs",1,140,2024-04-30T04:36:53+00:00,7.6686289310455,2,versionA_stim.csv,JOLVersion.csv,JOL,JOL1,RAZOR,MUSCLE,Study2,M,75,100,JOL,User,-,"How likely are you to correctly recall the second item in the pair?|Type your response on a scale from 0-100 and then press Enter.",Study/JOL,"Study Phase2",7565,,,7112,7290,,,,90,1
M20344322,jooq1j4ns3,"Mediated JOLs",1,141,2024-04-30T04:37:02+00:00,9.4306671619415,2,versionA_stim.csv,JOLVersion.csv,JOL,JOL1,MIRROR,CHILDREN,Study2,U,104,66,JOL,User,-,"How likely are you to correctly recall the second item in the pair?|Type your response on a scale from 0-100 and then press Enter.",Study/JOL,"Study Phase2",9322,,,8852,9051,,,,90,1
M20344322,jooq1j4ns3,"Mediated JOLs",1,142,2024-04-30T04:37:09+00:00,6.5636739730835,2,versionA_stim.csv,JOLVersion.csv,JOL,JOL1,BOTH,OUNCE,Study2,U,102,103,JOL,User,-,"How likely are you to correctly recall the second item in the pair?|Type your response on a scale from 0-100 and then press Enter.",Study/JOL,"Study Phase2",6484,,,6094,6246,,,,90,1
M20344322,jooq1j4ns3,"Mediated JOLs",1,143,2024-04-30T04:37:14+00:00,5.3243668079376,2,versionA_stim.csv,JOLVersion.csv,JOL,JOL1,TRAP,CAVE,Study2,M,70,85,JOL,User,-,"How likely are you to correctly recall the second item in the pair?|Type your response on a scale from 0-100 and then press Enter.",Study/JOL,"Study Phase2",5245,,,4855,4987,,,,90,1
M20344322,jooq1j4ns3,"Mediated JOLs",1,144,2024-04-30T04:37:22+00:00,7.8481380939484,2,versionA_stim.csv,JOLVersion.csv,JOL,JOL1,SUGAR,RIDDLE,Study2,U,95,89,JOL,User,-,"How likely are you to correctly recall the second item in the pair?|Type your response on a scale from 0-100 and then press Enter.",Study/JOL,"Study Phase2",7770,,,7413,7553,,,,90,1
M20344322,jooq1j4ns3,"Mediated JOLs",1,145,2024-04-30T04:37:29+00:00,7.0963840484619,2,versionA_stim.csv,JOLVersion.csv,JOL,JOL1,GRILL,THIGH,Study2,M,72,93,JOL,User,-,"How likely are you to correctly recall the second item in the pair?|Type your response on a scale from 0-100 and then press Enter.",Study/JOL,"Study Phase2",7010,,,6546,6694,,,,90,1
M20344322,jooq1j4ns3,"Mediated JOLs",1,146,2024-04-30T04:37:35+00:00,5.9660840034485,2,versionA_stim.csv,JOLVersion.csv,JOL,JOL1,CASH,LEG,Study2,U,105,90,JOL,User,-,"How likely are you to correctly recall the second item in the pair?|Type your response on a scale from 0-100 and then press Enter.",Study/JOL,"Study Phase2",5579,,,5124,5331,,,,70,1
M20344322,jooq1j4ns3,"Mediated JOLs",1,147,2024-04-30T04:37:40+00:00,4.9328088760376,2,versionA_stim.csv,JOLVersion.csv,JOL,JOL1,CHOP,CUT,Study2,F,77,91,JOL,User,-,"How likely are you to correctly recall the second item in the pair?|Type your response on a scale from 0-100 and then press Enter.",Study/JOL,"Study Phase2",4843,,,4397,4535,,,,90,1
M20344322,jooq1j4ns3,"Mediated JOLs",1,148,2024-04-30T04:37:47+00:00,6.7670691013336,2,versionA_stim.csv,JOLVersion.csv,JOL,JOL1,RAKE,SEED,Study2,M,69,99,JOL,User,-,"How likely are you to correctly recall the second item in the pair?|Type your response on a scale from 0-100 and then press Enter.",Study/JOL,"Study Phase2",6681,,,6271,6452,,,,70,1
M20344322,jooq1j4ns3,"Mediated JOLs",1,149,2024-04-30T04:37:55+00:00,8.2137269973755,2,versionA_stim.csv,JOLVersion.csv,JOL,JOL1,DEATH,BUSINESS,Study2,U,99,97,JOL,User,-,"How likely are you to correctly recall the second item in the pair?|Type your response on a scale from 0-100 and then press Enter.",Study/JOL,"Study Phase2",8142,,,7216,7822,,,,80,1
M20344322,jooq1j4ns3,"Mediated JOLs",1,150,2024-04-30T04:38:02+00:00,7.072450876236,2,versionA_stim.csv,JOLVersion.csv,JOL,JOL1,BRIDGE,WATER,Study2,F,90,80,JOL,User,-,"How likely are you to correctly recall the second item in the pair?|Type your response on a scale from 0-100 and then press Enter.",Study/JOL,"Study Phase2",6983,,,6496,6679,,,,80,1
M20344322,jooq1j4ns3,"Mediated JOLs",1,151,2024-04-30T04:38:12+00:00,10.06139922142,2,versionA_stim.csv,JOLVersion.csv,JOL,JOL1,CACTUS,PLANT,Study2,F,76,98,JOL,User,-,"How likely are you to correctly recall the second item in the pair?|Type your response on a scale from 0-100 and then press Enter.",Study/JOL,"Study Phase2",9965,,,9560,9729,,,,80,1
M20344322,jooq1j4ns3,"Mediated JOLs",1,152,2024-04-30T04:38:19+00:00,6.6613488197327,2,versionA_stim.csv,JOLVersion.csv,JOL,JOL1,SCHOOL,STOP,Study2,M,62,73,JOL,User,-,"How likely are you to correctly recall the second item in the pair?|Type your response on a scale from 0-100 and then press Enter.",Study/JOL,"Study Phase2",6575,,,6199,6350,,,,90,1
M20344322,jooq1j4ns3,"Mediated JOLs",1,153,2024-04-30T04:38:26+00:00,7.6214070320129,2,versionA_stim.csv,JOLVersion.csv,JOL,JOL1,CHISEL,HAMMER,Study2,F,78,94,JOL,User,-,"How likely are you to correctly recall the second item in the pair?|Type your response on a scale from 0-100 and then press Enter.",Study/JOL,"Study Phase2",7529,,,7086,7256,,,,80,1
M20344322,jooq1j4ns3,"Mediated JOLs",1,154,2024-04-30T04:38:33+00:00,6.3785870075226,2,versionA_stim.csv,JOLVersion.csv,JOL,JOL1,SICK,HIDE,Study2,U,100,70,JOL,User,-,"How likely are you to correctly recall the second item in the pair?|Type your response on a scale from 0-100 and then press Enter.",Study/JOL,"Study Phase2",6289,,,5807,6029,,,,70,1
M20344322,jooq1j4ns3,"Mediated JOLs",1,155,2024-04-30T04:38:42+00:00,9.2127261161804,2,versionA_stim.csv,JOLVersion.csv,JOL,JOL1,ATTIRE,CLOTHES,Study2,F,79,92,JOL,User,-,"How likely are you to correctly recall the second item in the pair?|Type your response on a scale from 0-100 and then press Enter.",Study/JOL,"Study Phase2",9097,,,8699,8856,,,,90,1
M20344322,jooq1j4ns3,"Mediated JOLs",1,156,2024-04-30T04:38:47+00:00,5.5939500331879,2,versionA_stim.csv,JOLVersion.csv,JOL,JOL1,ART,WOLF,Study2,U,93,71,JOL,User,-,"How likely are you to correctly recall the second item in the pair?|Type your response on a scale from 0-100 and then press Enter.",Study/JOL,"Study Phase2",5509,,,5047,5271,,,,70,1
M20344322,jooq1j4ns3,"Mediated JOLs",1,157,2024-04-30T04:38:56+00:00,8.7064108848572,2,versionA_stim.csv,JOLVersion.csv,JOL,JOL1,LEAGUE,BASEBALL,Study2,F,84,87,JOL,User,-,"How likely are you to correctly recall the second item in the pair?|Type your response on a scale from 0-100 and then press Enter.",Study/JOL,"Study Phase2",8602,,,8164,8348,,,,80,1
M20344322,jooq1j4ns3,"Mediated JOLs",1,158,2024-04-30T04:39:03+00:00,6.9366550445557,2,versionA_stim.csv,JOLVersion.csv,JOL,JOL1,SOAP,DRINK,Study2,M,67,77,JOL,User,-,"How likely are you to correctly recall the second item in the pair?|Type your response on a scale from 0-100 and then press Enter.",Study/JOL,"Study Phase2",6832,,,6423,6602,,,,80,1
M20344322,jooq1j4ns3,"Mediated JOLs",1,159,2024-04-30T04:39:10+00:00,6.8771929740906,2,versionA_stim.csv,JOLVersion.csv,JOL,JOL1,INCENSE,SMELL,Study2,F,83,81,JOL,User,-,"How likely are you to correctly recall the second item in the pair?|Type your response on a scale from 0-100 and then press Enter.",Study/JOL,"Study Phase2",6792,,,6324,6521,,,,70,1
M20344322,jooq1j4ns3,"Mediated JOLs",1,160,2024-04-30T04:39:17+00:00,6.5606088638306,2,versionA_stim.csv,JOLVersion.csv,JOL,JOL1,SUMMER,SNOW,Study2,M,61,69,JOL,User,-,"How likely are you to correctly recall the second item in the pair?|Type your response on a scale from 0-100 and then press Enter.",Study/JOL,"Study Phase2",6481,,,6066,6261,,,,70,1
M20344322,jooq1j4ns3,"Mediated JOLs",1,161,2024-04-30T04:39:23+00:00,6.6662740707397,2,versionA_stim.csv,JOLVersion.csv,JOL,JOL1,WASP,BUG,Study2,F,89,75,JOL,User,-,"How likely are you to correctly recall the second item in the pair?|Type your response on a scale from 0-100 and then press Enter.",Study/JOL,"Study Phase2",6598,,,6153,6355,,,,70,1
M20344322,jooq1j4ns3,"Mediated JOLs",1,162,2024-04-30T04:39:30+00:00,6.4164760112762,2,versionA_stim.csv,JOLVersion.csv,JOL,JOL1,THING,STUFF,BUFFER2,Buffer,55,54,JOL,User,-,"How likely are you to correctly recall the second item in the pair?|Type your response on a scale from 0-100 and then press Enter.",Study/JOL,BUFFER2,6335,,,5929,6107,,,,80,1
M20344322,jooq1j4ns3,"Mediated JOLs",1,163,2024-04-30T04:39:37+00:00,7.1696081161499,2,versionA_stim.csv,JOLVersion.csv,JOL,JOL1,CAMP,ADVENTURE,BUFFER4,Buffer,110,107,JOL,User,-,"How likely are you to correctly recall the second item in the pair?|Type your response on a scale from 0-100 and then press Enter.",Study/JOL,BUFFER2,7095,,,6719,6869,,,,80,1
M20344322,jooq1j4ns3,"Mediated JOLs",1,164,2024-04-30T04:39:44+00:00,7.6926620006561,2,versionA_stim.csv,JOLVersion.csv,JOL,JOL1,SHERRIF,POLICE,BUFFER2,Buffer,52,52,JOL,User,-,"How likely are you to correctly recall the second item in the pair?|Type your response on a scale from 0-100 and then press Enter.",Study/JOL,BUFFER2,7598,,,7205,7373,,,,80,1
M20344322,jooq1j4ns3,"Mediated JOLs",1,165,2024-04-30T04:39:51+00:00,6.3562479019165,2,versionA_stim.csv,JOLVersion.csv,JOL,JOL1,MONTH,YEAR,BUFFER3,Buffer,57,58,JOL,User,-,"How likely are you to correctly recall the second item in the pair?|Type your response on a scale from 0-100 and then press Enter.",Study/JOL,BUFFER2,6233,,,5827,5993,,,,70,1
M20344322,jooq1j4ns3,"Mediated JOLs",1,166,2024-04-30T04:39:59+00:00,7.9685900211334,2,versionA_stim.csv,JOLVersion.csv,JOL,JOL1,SPRING,MARCH,BUFFER3,Buffer,59,60,JOL,User,-,"How likely are you to correctly recall the second item in the pair?|Type your response on a scale from 0-100 and then press Enter.",Study/JOL,BUFFER2,7869,,,7499,7650,,,,80,1
M20344322,jooq1j4ns3,"Mediated JOLs",1,167,2024-04-30T04:40:01+00:00,1.7812960147858,2,versionA_stim.csv,JOLVersion.csv,JOL,JOL1,,,,,,0,Instruct,User,-,"You have completed this section. Please press Enter.",Filler_Instruction,Instruct2,1685,,,-1,-1,,,,,1
M20344322,jooq1j4ns3,"Mediated JOLs",1,168,2024-04-30T04:42:12+00:00,131.47887301445,2,versionA_stim.csv,JOLVersion.csv,JOL,JOL1,,,,,,0,FreeRecall,120,120,"Please list the 50 US states in alphabetical order. The task will automatically advance to the next screen after two minutes.",,Filler1,131204,"Sure, here they are: 1. Alabama 2. Alaska 3. Arizona 4. Arkansas 5. California 6. Colorado 7. Connecticut 8. Delaware 9. Florida 10. Georgia 11. Hawaii 12. Idaho 13. Illinois 14. Indiana 15. Iowa 16. Kansas 17. Kentucky 18. Louisiana 19. Maine 20. Maryland 21. Massachusetts 22. Michigan 23. Minnesota 24. Mississippi 25. Missouri 26. Montana 27. Nebraska 28. Nevada 29. New Hampshire 30. New Jersey 31. New Mexico 32. New York 33. North Carolina 34. North Dakota 35. Ohio 36. Oklahoma 37. Oregon 38. Pennsylvania 39. Rhode Island 40. South Carolina 41. South Dakota 42. Tennessee 43. Texas 44. Utah 45. Vermont 46. Virginia 47. Washington 48. West Virginia 49. Wisconsin 50. Wyoming",0,-1,-1,0,0,,,0.794
M20344322,jooq1j4ns3,"Mediated JOLs",1,169,2024-04-30T04:42:25+00:00,12.65621304512,2,versionA_stim.csv,JOLVersion.csv,JOL,JOL1,,,,,,0,Instruct,-,10,"You will now be presented with the first word from each of the previously studied item pairs. Please type the missing word. If you do not know the word, you may guess or press Enter to skip forward to the next pair.",,Instruct3,12547,,,-1,-1,,,,,0.6
M20344322,jooq1j4ns3,"Mediated JOLs",1,170,2024-04-30T04:42:36+00:00,11.377058982849,2,versionA_stim.csv,JOLVersion.csv,JOL,JOL1,SOAP,DRINK,Study2,M,67,77,Test,User,-,,Recall,Recall2,11289,drink,100,10367,11057,1,1,,,1
M20344322,jooq1j4ns3,"Mediated JOLs",1,171,2024-04-30T04:43:04+00:00,27.7689640522,2,versionA_stim.csv,JOLVersion.csv,JOL,JOL1,LEAGUE,BASEBALL,Study2,F,84,87,Test,User,-,,Recall,Recall2,27176,baseball,100,25872,26982,1,1,,,1
M20344322,jooq1j4ns3,"Mediated JOLs",1,172,2024-04-30T04:43:15+00:00,10.988672971725,2,versionA_stim.csv,JOLVersion.csv,JOL,JOL1,WINDOW,KNOB,Study2,M,74,88,Test,User,-,,Recall,Recall2,10876,knob,100,10035,10593,1,1,,,1
M20344322,jooq1j4ns3,"Mediated JOLs",1,173,2024-04-30T04:44:40+00:00,85.144623994827,2,versionA_stim.csv,JOLVersion.csv,JOL,JOL1,RAKE,SEED,Study2,M,69,99,Test,User,-,,Recall,Recall2,84878,,0,-1,-1,0,0,,,1
M20344322,jooq1j4ns3,"Mediated JOLs",1,174,2024-04-30T04:44:43+00:00,3.0606579780579,2,versionA_stim.csv,JOLVersion.csv,JOL,JOL1,CACTUS,PLANT,Study2,F,76,98,Test,User,-,,Recall,Recall2,2942,plant,100,1648,2661,1,1,,,1
M20344322,jooq1j4ns3,"Mediated JOLs",1,175,2024-04-30T04:44:57+00:00,13.671893835068,2,versionA_stim.csv,JOLVersion.csv,JOL,JOL1,PUSH,CLUTTER,Study2,U,96,104,Test,User,-,,Recall,Recall2,13578,clutter,100,9938,11604,1,1,,,1
M20344322,jooq1j4ns3,"Mediated JOLs",1,176,2024-04-30T04:45:05+00:00,8.2420961856842,2,versionA_stim.csv,JOLVersion.csv,JOL,JOL1,HEAVY,FEATHER,Study2,M,68,76,Test,User,-,,Recall,Recall2,8150,feather,100,6144,7343,1,1,,,1
M20344322,jooq1j4ns3,"Mediated JOLs",1,177,2024-04-30T04:45:45+00:00,39.70361995697,2,versionA_stim.csv,JOLVersion.csv,JOL,JOL1,CHERRY,RED,Study2,F,80,62,Test,User,-,,Recall,Recall2,39601,,0,-1,-1,0,0,,,1
M20344322,jooq1j4ns3,"Mediated JOLs",1,178,2024-04-30T04:45:55+00:00,10.453367948532,2,versionA_stim.csv,JOLVersion.csv,JOL,JOL1,STRONG,ACCIDENT,Study2,U,94,95,Test,User,-,,Recall,Recall2,10349,accident,100,8520,10022,1,1,,,1
M20344322,jooq1j4ns3,"Mediated JOLs",1,179,2024-04-30T04:46:10+00:00,14.512445926666,2,versionA_stim.csv,JOLVersion.csv,JOL,JOL1,SCHOOL,STOP,Study2,M,62,73,Test,User,-,,Recall,Recall2,14413,stop,100,12878,13630,1,1,,,1
M20344322,jooq1j4ns3,"Mediated JOLs",1,180,2024-04-30T04:46:14+00:00,4.2590019702911,2,versionA_stim.csv,JOLVersion.csv,JOL,JOL1,CHOP,CUT,Study2,F,77,91,Test,User,-,,Recall,Recall2,4168,cut,100,3451,3891,1,1,,,1
M20344322,jooq1j4ns3,"Mediated JOLs",1,181,2024-04-30T04:46:19+00:00,5.1229960918427,2,versionA_stim.csv,JOLVersion.csv,JOL,JOL1,CHISEL,HAMMER,Study2,F,78,94,Test,User,-,,Recall,Recall2,5040,hammer,100,2960,4608,1,1,,,1
M20344322,jooq1j4ns3,"Mediated JOLs",1,182,2024-04-30T04:48:43+00:00,144.42451906204,2,versionA_stim.csv,JOLVersion.csv,JOL,JOL1,TRAP,CAVE,Study2,M,70,85,Test,User,-,,Recall,Recall2,144125,cave,100,143595,143969,1,1,,,1
M20344322,jooq1j4ns3,"Mediated JOLs",1,183,2024-04-30T04:48:51+00:00,7.147304058075,2,versionA_stim.csv,JOLVersion.csv,JOL,JOL1,NURSE,LAWYER,Study2,M,66,78,Test,User,-,,Recall,Recall2,6258,lawyer,100,5085,6031,1,1,,,1
M20344322,jooq1j4ns3,"Mediated JOLs",1,184,2024-04-30T04:48:54+00:00,3.6239449977875,2,versionA_stim.csv,JOLVersion.csv,JOL,JOL1,ARTERY,BRONZE,Study2,U,103,63,Test,User,-,,Recall,Recall2,3542,bronze,100,2404,3327,1,1,,,1
M20344322,jooq1j4ns3,"Mediated JOLs",1,185,2024-04-30T04:49:19+00:00,24.782217025757,2,versionA_stim.csv,JOLVersion.csv,JOL,JOL1,BLAZE,FIRE,Study2,F,81,82,Test,User,-,,Recall,Recall2,24699,fire,100,24154,24565,1,1,,,1
M20344322,jooq1j4ns3,"Mediated JOLs",1,186,2024-04-30T04:49:32+00:00,13.159550905228,2,versionA_stim.csv,JOLVersion.csv,JOL,JOL1,ART,WOLF,Study2,U,93,71,Test,User,-,,Recall,Recall2,13052,wolf,100,12224,12623,1,1,,,1
M20344322,jooq1j4ns3,"Mediated JOLs",1,187,2024-04-30T04:53:12+00:00,219.93216705322,2,versionA_stim.csv,JOLVersion.csv,JOL,JOL1,SUGAR,RIDDLE,Study2,U,95,89,Test,User,-,,Recall,Recall2,219615,riddle,100,218010,219398,1,1,,,0.737
M20344322,jooq1j4ns3,"Mediated JOLs",1,188,2024-04-30T04:53:16+00:00,3.7644939422607,2,versionA_stim.csv,JOLVersion.csv,JOL,JOL1,GRILL,THIGH,Study2,M,72,93,Test,User,-,,Recall,Recall2,3678,thigh,100,2476,3002,1,1,,,1
M20344322,jooq1j4ns3,"Mediated JOLs",1,189,2024-04-30T04:53:22+00:00,5.6750700473785,2,versionA_stim.csv,JOLVersion.csv,JOL,JOL1,VALLEY,PEAK,Study2,M,73,102,Test,User,-,,Recall,Recall2,5590,peak,100,4911,5328,1,1,,,1
M20344322,jooq1j4ns3,"Mediated JOLs",1,190,2024-04-30T04:53:27+00:00,5.4625458717346,2,versionA_stim.csv,JOLVersion.csv,JOL,JOL1,HAPPY,CAR,Study2,U,92,68,Test,User,-,,Recall,Recall2,5375,car,100,4752,4972,1,1,,,1
M20344322,jooq1j4ns3,"Mediated JOLs",1,191,2024-04-30T04:53:34+00:00,6.7138500213623,2,versionA_stim.csv,JOLVersion.csv,JOL,JOL1,DOCUMENT,PAPER,Study2,F,82,72,Test,User,-,,Recall,Recall2,6627,paper,100,5171,6414,1,1,,,1
M20344322,jooq1j4ns3,"Mediated JOLs",1,192,2024-04-30T04:53:43+00:00,9.4283170700073,2,versionA_stim.csv,JOLVersion.csv,JOL,JOL1,ATTIRE,CLOTHES,Study2,F,79,92,Test,User,-,,Recall,Recall2,9355,clothes,100,8359,9212,1,1,,,1
M20344322,jooq1j4ns3,"Mediated JOLs",1,193,2024-04-30T04:53:50+00:00,7.0298459529877,2,versionA_stim.csv,JOLVersion.csv,JOL,JOL1,BENCH,HORN,Study2,U,98,83,Test,User,-,,Recall,Recall2,6933,horn,100,6152,6696,1,1,,,1
M20344322,jooq1j4ns3,"Mediated JOLs",1,194,2024-04-30T04:54:00+00:00,10.255274057388,2,versionA_stim.csv,JOLVersion.csv,JOL,JOL1,LEASE,TOIL,Study2,U,101,86,Test,User,-,,Recall,Recall2,8946,toil,100,8378,8779,1,1,,,1
M20344322,jooq1j4ns3,"Mediated JOLs",1,195,2024-04-30T04:54:24+00:00,23.33745098114,2,versionA_stim.csv,JOLVersion.csv,JOL,JOL1,DEATH,BUSINESS,Study2,U,99,97,Test,User,-,,Recall,Recall2,23258,business,100,21450,23151,1,1,,,1
M20344322,jooq1j4ns3,"Mediated JOLs",1,196,2024-04-30T04:54:34+00:00,10.587946891785,2,versionA_stim.csv,JOLVersion.csv,JOL,JOL1,DIETARY,SACK,Study2,U,97,96,Test,User,-,,Recall,Recall2,10509,sack,100,9708,10256,1,1,,,1
M20344322,jooq1j4ns3,"Mediated JOLs",1,197,2024-04-30T04:54:40+00:00,6.0378680229187,2,versionA_stim.csv,JOLVersion.csv,JOL,JOL1,FEUD,FIGHT,Study2,F,86,106,Test,User,-,,Recall,Recall2,5946,,0,-1,-1,0,0,,,1
M20344322,jooq1j4ns3,"Mediated JOLs",1,198,2024-04-30T04:54:48+00:00,7.3361370563507,2,versionA_stim.csv,JOLVersion.csv,JOL,JOL1,BRIDGE,WATER,Study2,F,90,80,Test,User,-,,Recall,Recall2,7252,water,100,5711,6994,1,1,,,1
M20344322,jooq1j4ns3,"Mediated JOLs",1,199,2024-04-30T04:54:55+00:00,7.1576020717621,2,versionA_stim.csv,JOLVersion.csv,JOL,JOL1,EYES,SMELL,Study2,M,65,105,Test,User,-,,Recall,Recall2,7075,smell,100,6380,6867,1,1,,,1
M20344322,jooq1j4ns3,"Mediated JOLs",1,200,2024-04-30T04:55:31+00:00,35.739347934723,2,versionA_stim.csv,JOLVersion.csv,JOL,JOL1,PANTS,COLLAR,Study2,M,63,79,Test,User,-,,Recall,Recall2,35626,collar,100,34805,35501,1,1,,,1
M20344322,jooq1j4ns3,"Mediated JOLs",1,201,2024-04-30T04:55:46+00:00,14.886781930923,2,versionA_stim.csv,JOLVersion.csv,JOL,JOL1,INCENSE,SMELL,Study2,F,83,81,Test,User,-,,Recall,Recall2,14785,smell,100,14047,14571,1,1,,,1
M20344322,jooq1j4ns3,"Mediated JOLs",1,202,2024-04-30T04:56:00+00:00,14.48851108551,2,versionA_stim.csv,JOLVersion.csv,JOL,JOL1,OVEN,BASKET,Study2,M,71,84,Test,User,-,,Recall,Recall2,14397,basket,100,13440,14246,1,1,,,1
M20344322,jooq1j4ns3,"Mediated JOLs",1,203,2024-04-30T04:56:08+00:00,8.4791860580444,2,versionA_stim.csv,JOLVersion.csv,JOL,JOL1,CHILL,COLD,Study2,F,87,67,Test,User,-,,Recall,Recall2,8382,cold,100,7944,8265,1,1,,,1
M20344322,jooq1j4ns3,"Mediated JOLs",1,204,2024-04-30T04:56:16+00:00,7.0387189388275,2,versionA_stim.csv,JOLVersion.csv,JOL,JOL1,REALITY,ISLAND,Study2,M,64,74,Test,User,-,,Recall,Recall2,6933,island,100,6184,6714,1,1,,,1
M20344322,jooq1j4ns3,"Mediated JOLs",1,205,2024-04-30T04:56:21+00:00,5.4818830490112,2,versionA_stim.csv,JOLVersion.csv,JOL,JOL1,MIRROR,CHILDREN,Study2,U,104,66,Test,User,-,,Recall,Recall2,5391,children,100,4178,5156,1,1,,,1
M20344322,jooq1j4ns3,"Mediated JOLs",1,206,2024-04-30T04:56:29+00:00,7.9883809089661,2,versionA_stim.csv,JOLVersion.csv,JOL,JOL1,CASH,LEG,Study2,U,105,90,Test,User,-,,Recall,Recall2,7893,leg,100,7354,7641,1,1,,,1
M20344322,jooq1j4ns3,"Mediated JOLs",1,207,2024-04-30T04:56:37+00:00,8.1333560943604,2,versionA_stim.csv,JOLVersion.csv,JOL,JOL1,BOTH,OUNCE,Study2,U,102,103,Test,User,-,,Recall,Recall2,8063,,0,-1,-1,0,0,,,1
M20344322,jooq1j4ns3,"Mediated JOLs",1,208,2024-04-30T04:56:47+00:00,9.4062180519104,2,versionA_stim.csv,JOLVersion.csv,JOL,JOL1,KING,VASE,Study2,U,91,64,Test,User,-,,Recall,Recall2,9321,,0,-1,-1,0,0,,,1
M20344322,jooq1j4ns3,"Mediated JOLs",1,209,2024-04-30T04:56:50+00:00,2.9871048927307,2,versionA_stim.csv,JOLVersion.csv,JOL,JOL1,WASP,BUG,Study2,F,89,75,Test,User,-,,Recall,Recall2,2891,bug,100,2438,2755,1,1,,,1
M20344322,jooq1j4ns3,"Mediated JOLs",1,210,2024-04-30T04:56:52+00:00,2.5026559829712,2,versionA_stim.csv,JOLVersion.csv,JOL,JOL1,SUMMER,SNOW,Study2,M,61,69,Test,User,-,,Recall,Recall2,2412,snow,100,1918,2232,1,1,,,1
M20344322,jooq1j4ns3,"Mediated JOLs",1,211,2024-04-30T04:58:02+00:00,69.911108016968,2,versionA_stim.csv,JOLVersion.csv,JOL,JOL1,HERD,COW,Study2,F,88,65,Test,User,-,,Recall,Recall2,69619,,0,-1,-1,0,0,,,1
M20344322,jooq1j4ns3,"Mediated JOLs",1,212,2024-04-30T04:58:08+00:00,6.4918251037598,2,versionA_stim.csv,JOLVersion.csv,JOL,JOL1,HORNET,STING,Study2,F,85,101,Test,User,-,,Recall,Recall2,6379,sting,100,4683,6199,1,1,,,1
M20344322,jooq1j4ns3,"Mediated JOLs",1,213,2024-04-30T04:58:18+00:00,9.5260667800903,2,versionA_stim.csv,JOLVersion.csv,JOL,JOL1,SICK,HIDE,Study2,U,100,70,Test,User,-,,Recall,Recall2,9452,hind,75,8871,9288,0,1,,,1
M20344322,jooq1j4ns3,"Mediated JOLs",1,214,2024-04-30T04:58:27+00:00,8.6355800628662,2,versionA_stim.csv,JOLVersion.csv,JOL,JOL1,RAZOR,MUSCLE,Study2,M,75,100,Test,User,-,,Recall,Recall2,8563,muscle,100,7480,8387,1,1,,,1
M20344322,jooq1j4ns3,"Mediated JOLs",1,215,2024-04-30T04:58:28+00:00,1.6531541347504,2,versionA_stim.csv,JOLVersion.csv,JOL,JOL1,,,,,,0,Instruct,User,-,"You have completed this section. Please press Enter.",,Instruct7,1564,,,-1,-1,,,,,1
M20344322,jooq1j4ns3,"Mediated JOLs",1,216,2024-04-30T04:58:29+00:00,0.91947197914124,2,versionA_stim.csv,JOLVersion.csv,JOL,JOL1,,,,,,0,Instruct,User,-,"The following screen will ask you a few questions abour your experience today. You must complete these questions to receive credit.",,Instruct8,845,,,-1,-1,,,,,1
