Username,ID,ExperimentName,Session,Trial,Date,TimeDif,"Condition Number","Stimuli File","Order File","Condition Description","Condition Notes",Stimuli*Cue,Stimuli*Answer,Stimuli*Shuffle,"Stimuli*Stimuli Notes",Stimuli*Value,Procedure*Item,"Procedure*Trial Type","Procedure*Max Time","Procedure*Min Time",Procedure*Text,"Procedure*Procedure Notes",Procedure*Shuffle,Response*RT,Response*Response,Response*Accuracy,Response*RTfirst,Response*RTlast,Response*strictAcc,Response*lenientAcc,Response*focus,Response*Focus
M20329189AT,d6auktk38s,"Mediated JOLs",1,1,2024-11-21T00:14:36+00:00,6.2580409049988,3,versionB_stim.csv,ReadVersion.csv,Read,Read2,,,,,,0,Instruct,-,5,"In this section, you will be presented with a series of word pairs. Please study each word pair! Your memory will be tested!",Initial_Instruct,Instruct1,6171,,,-1,-1,,,,1
M20329189AT,d6auktk38s,"Mediated JOLs",1,2,2024-11-21T00:14:37+00:00,1.2931289672852,3,versionB_stim.csv,ReadVersion.csv,Read,Read2,,,,,,0,Instruct,User,-,"You will now begin. Press Enter when you are ready to begin.",,Instruct16,1139,,,-1,-1,,,,1
M20329189AT,d6auktk38s,"Mediated JOLs",1,3,2024-11-21T00:14:39+00:00,2.2407529354095,3,versionB_stim.csv,ReadVersion.csv,Read,Read2,DAYS,WEEKS,BUFFER3,Buffer,1,2,Study,User,-,,Study/JOL,BUFFER,2100,,,-1,-1,,,,1
M20329189AT,d6auktk38s,"Mediated JOLs",1,4,2024-11-21T00:14:41+00:00,2.3965640068054,3,versionB_stim.csv,ReadVersion.csv,Read,Read2,TOOL,SHED,BUFFER3,Buffer,3,3,Study,User,-,,Study/JOL,BUFFER,2253,,,-1,-1,,,,1
M20329189AT,d6auktk38s,"Mediated JOLs",1,5,2024-11-21T00:14:44+00:00,2.1794321537018,3,versionB_stim.csv,ReadVersion.csv,Read,Read2,SPRING,MARCH,BUFFER3,Buffer,4,5,Study,User,-,,Study/JOL,BUFFER,2037,,,-1,-1,,,,1
M20329189AT,d6auktk38s,"Mediated JOLs",1,6,2024-11-21T00:14:46+00:00,2.2164390087128,3,versionB_stim.csv,ReadVersion.csv,Read,Read2,MONTH,YEAR,BUFFER3,Buffer,2,4,Study,User,-,,Study/JOL,BUFFER,2058,,,-1,-1,,,,1
M20329189AT,d6auktk38s,"Mediated JOLs",1,7,2024-11-21T00:14:49+00:00,3.0450170040131,3,versionB_stim.csv,ReadVersion.csv,Read,Read2,OCTOBER,SPOOKY,BUFFER3,Buffer,5,6,Study,User,-,,Study/JOL,BUFFER,2896,,,-1,-1,,,,1
M20329189AT,d6auktk38s,"Mediated JOLs",1,8,2024-11-21T00:14:51+00:00,2.3327670097351,3,versionB_stim.csv,ReadVersion.csv,Read,Read2,SUGAR,RIDDLE,Study2,U,40,34,Study,User,-,,Study/JOL,"Study Phase",2185,,,-1,-1,,,,1
M20329189AT,d6auktk38s,"Mediated JOLs",1,9,2024-11-21T00:14:54+00:00,2.4527080059052,3,versionB_stim.csv,ReadVersion.csv,Read,Read2,OVEN,WEAVE,Study2,M,16,33,Study,User,-,,Study/JOL,"Study Phase",2309,,,-1,-1,,,,1
M20329189AT,d6auktk38s,"Mediated JOLs",1,10,2024-11-21T00:14:57+00:00,2.8845069408417,3,versionB_stim.csv,ReadVersion.csv,Read,Read2,CACTUS,PLANT,Study2,F,21,28,Study,User,-,,Study/JOL,"Study Phase",2734,,,-1,-1,,,,1
M20329189AT,d6auktk38s,"Mediated JOLs",1,11,2024-11-21T00:14:59+00:00,2.8692779541016,3,versionB_stim.csv,ReadVersion.csv,Read,Read2,ATTIRE,CLOTHES,Study2,F,24,15,Study,User,-,,Study/JOL,"Study Phase",2711,,,-1,-1,,,,1
M20329189AT,d6auktk38s,"Mediated JOLs",1,12,2024-11-21T00:15:02+00:00,3.0736949443817,3,versionB_stim.csv,ReadVersion.csv,Read,Read2,SICK,HIDE,Study2,U,45,43,Study,User,-,,Study/JOL,"Study Phase",2933,,,-1,-1,,,,1
M20329189AT,d6auktk38s,"Mediated JOLs",1,13,2024-11-21T00:15:05+00:00,2.6906170845032,3,versionB_stim.csv,ReadVersion.csv,Read,Read2,CHERRY,RED,Study2,F,25,30,Study,User,-,,Study/JOL,"Study Phase",2561,,,-1,-1,,,,1
M20329189AT,d6auktk38s,"Mediated JOLs",1,14,2024-11-21T00:15:09+00:00,3.7495720386505,3,versionB_stim.csv,ReadVersion.csv,Read,Read2,WASP,BUG,Study2,F,34,16,Study,User,-,,Study/JOL,"Study Phase",3650,,,-1,-1,,,,1
M20329189AT,d6auktk38s,"Mediated JOLs",1,15,2024-11-21T00:15:13+00:00,4.0339319705963,3,versionB_stim.csv,ReadVersion.csv,Read,Read2,BOTH,OUNCE,Study2,U,47,51,Study,User,-,,Study/JOL,"Study Phase",3925,,,-1,-1,,,,1
M20329189AT,d6auktk38s,"Mediated JOLs",1,16,2024-11-21T00:15:16+00:00,2.8998310565948,3,versionB_stim.csv,ReadVersion.csv,Read,Read2,MIRROR,CHILDREN,Study2,U,49,17,Study,User,-,,Study/JOL,"Study Phase",2793,,,-1,-1,,,,1
M20329189AT,d6auktk38s,"Mediated JOLs",1,17,2024-11-21T00:15:19+00:00,3.2656829357147,3,versionB_stim.csv,ReadVersion.csv,Read,Read2,CASH,LEG,Study2,U,50,45,Study,User,-,,Study/JOL,"Study Phase",3162,,,-1,-1,,,,1
M20329189AT,d6auktk38s,"Mediated JOLs",1,18,2024-11-21T00:15:22+00:00,3.2493720054626,3,versionB_stim.csv,ReadVersion.csv,Read,Read2,REALITY,WATER,Study2,M,9,48,Study,User,-,,Study/JOL,"Study Phase",3144,,,-1,-1,,,,1
M20329189AT,d6auktk38s,"Mediated JOLs",1,19,2024-11-21T00:15:25+00:00,2.2222909927368,3,versionB_stim.csv,ReadVersion.csv,Read,Read2,PANTS,DOG,Study2,M,8,19,Study,User,-,,Study/JOL,"Study Phase",2103,,,-1,-1,,,,1
M20329189AT,d6auktk38s,"Mediated JOLs",1,20,2024-11-21T00:15:27+00:00,2.3461918830872,3,versionB_stim.csv,ReadVersion.csv,Read,Read2,STRONG,ACCIDENT,Study2,U,39,42,Study,User,-,,Study/JOL,"Study Phase",2238,,,-1,-1,,,,1
M20329189AT,d6auktk38s,"Mediated JOLs",1,21,2024-11-21T00:15:31+00:00,3.9667329788208,3,versionB_stim.csv,ReadVersion.csv,Read,Read2,KING,VASE,Study2,U,36,23,Study,User,-,,Study/JOL,"Study Phase",3860,,,-1,-1,,,,1
M20329189AT,d6auktk38s,"Mediated JOLs",1,22,2024-11-21T00:15:34+00:00,3.400722026825,3,versionB_stim.csv,ReadVersion.csv,Read,Read2,TRAP,MAN,Study2,M,15,11,Study,User,-,,Study/JOL,"Study Phase",3289,,,-1,-1,,,,1
M20329189AT,d6auktk38s,"Mediated JOLs",1,23,2024-11-21T00:15:37+00:00,2.546450138092,3,versionB_stim.csv,ReadVersion.csv,Read,Read2,HEAVY,BIRD,Study2,M,13,31,Study,User,-,,Study/JOL,"Study Phase",2444,,,-1,-1,,,,1
M20329189AT,d6auktk38s,"Mediated JOLs",1,24,2024-11-21T00:15:43+00:00,6.1204769611359,3,versionB_stim.csv,ReadVersion.csv,Read,Read2,RAKE,PLANT,Study2,M,14,38,Study,User,-,,Study/JOL,"Study Phase",6015,,,-1,-1,,,,1
M20329189AT,d6auktk38s,"Mediated JOLs",1,25,2024-11-21T00:15:46+00:00,2.9798300266266,3,versionB_stim.csv,ReadVersion.csv,Read,Read2,SUMMER,WHITE,Study2,M,6,44,Study,User,-,,Study/JOL,"Study Phase",2875,,,-1,-1,,,,1
M20329189AT,d6auktk38s,"Mediated JOLs",1,26,2024-11-21T00:15:49+00:00,2.7540879249573,3,versionB_stim.csv,ReadVersion.csv,Read,Read2,ART,WOLF,Study2,U,38,22,Study,User,-,,Study/JOL,"Study Phase",2641,,,-1,-1,,,,1
M20329189AT,d6auktk38s,"Mediated JOLs",1,27,2024-11-21T00:15:53+00:00,4.4640619754791,3,versionB_stim.csv,ReadVersion.csv,Read,Read2,DIETARY,SACK,Study2,U,42,18,Study,User,-,,Study/JOL,"Study Phase",4356,,,-1,-1,,,,1
M20329189AT,d6auktk38s,"Mediated JOLs",1,28,2024-11-21T00:15:57+00:00,4.0655980110168,3,versionB_stim.csv,ReadVersion.csv,Read,Read2,HAPPY,CAR,Study2,U,37,47,Study,User,-,,Study/JOL,"Study Phase",3960,,,-1,-1,,,,1
M20329189AT,d6auktk38s,"Mediated JOLs",1,29,2024-11-21T00:16:00+00:00,2.3638141155243,3,versionB_stim.csv,ReadVersion.csv,Read,Read2,CHISEL,HAMMER,Study2,F,23,50,Study,User,-,,Study/JOL,"Study Phase",2256,,,-1,-1,,,,1
M20329189AT,d6auktk38s,"Mediated JOLs",1,30,2024-11-21T00:16:02+00:00,2.1236898899078,3,versionB_stim.csv,ReadVersion.csv,Read,Read2,INCENSE,SMELL,Study2,F,28,9,Study,User,-,,Study/JOL,"Study Phase",1999,,,-1,-1,,,,1
M20329189AT,d6auktk38s,"Mediated JOLs",1,31,2024-11-21T00:16:04+00:00,2.1307189464569,3,versionB_stim.csv,ReadVersion.csv,Read,Read2,CHOP,CUT,Study2,F,22,21,Study,User,-,,Study/JOL,"Study Phase",2015,,,-1,-1,,,,1
M20329189AT,d6auktk38s,"Mediated JOLs",1,32,2024-11-21T00:16:08+00:00,3.6479690074921,3,versionB_stim.csv,ReadVersion.csv,Read,Read2,VALLEY,TOP,Study2,M,18,25,Study,User,-,,Study/JOL,"Study Phase",3527,,,-1,-1,,,,1
M20329189AT,d6auktk38s,"Mediated JOLs",1,33,2024-11-21T00:16:12+00:00,4.5984029769897,3,versionB_stim.csv,ReadVersion.csv,Read,Read2,SOAP,THIRST,Study2,M,12,20,Study,User,-,,Study/JOL,"Study Phase",4466,,,-1,-1,,,,1
M20329189AT,d6auktk38s,"Mediated JOLs",1,34,2024-11-21T00:16:14+00:00,2.1492991447449,3,versionB_stim.csv,ReadVersion.csv,Read,Read2,BRIDGE,WATER,Study2,F,35,35,Study,User,-,,Study/JOL,"Study Phase",2037,,,-1,-1,,,,1
M20329189AT,d6auktk38s,"Mediated JOLs",1,35,2024-11-21T00:16:17+00:00,2.625697851181,3,versionB_stim.csv,ReadVersion.csv,Read,Read2,CHILL,COLD,Study2,F,32,14,Study,User,-,,Study/JOL,"Study Phase",2510,,,-1,-1,,,,1
M20329189AT,d6auktk38s,"Mediated JOLs",1,36,2024-11-21T00:16:20+00:00,2.7369320392609,3,versionB_stim.csv,ReadVersion.csv,Read,Read2,BLAZE,FIRE,Study2,F,26,12,Study,User,-,,Study/JOL,"Study Phase",2626,,,-1,-1,,,,1
M20329189AT,d6auktk38s,"Mediated JOLs",1,37,2024-11-21T00:16:22+00:00,2.5035500526428,3,versionB_stim.csv,ReadVersion.csv,Read,Read2,LEASE,TOIL,Study2,U,46,10,Study,User,-,,Study/JOL,"Study Phase",2387,,,-1,-1,,,,1
M20329189AT,d6auktk38s,"Mediated JOLs",1,38,2024-11-21T00:16:25+00:00,2.3895111083984,3,versionB_stim.csv,ReadVersion.csv,Read,Read2,HERD,COW,Study2,F,33,24,Study,User,-,,Study/JOL,"Study Phase",2281,,,-1,-1,,,,1
M20329189AT,d6auktk38s,"Mediated JOLs",1,39,2024-11-21T00:16:27+00:00,2.7993388175964,3,versionB_stim.csv,ReadVersion.csv,Read,Read2,BENCH,HORN,Study2,U,43,40,Study,User,-,,Study/JOL,"Study Phase",2684,,,-1,-1,,,,1
M20329189AT,d6auktk38s,"Mediated JOLs",1,40,2024-11-21T00:16:30+00:00,2.6592271327972,3,versionB_stim.csv,ReadVersion.csv,Read,Read2,RAZOR,ARM,Study2,M,20,37,Study,User,-,,Study/JOL,"Study Phase",2539,,,-1,-1,,,,1
M20329189AT,d6auktk38s,"Mediated JOLs",1,41,2024-11-21T00:16:34+00:00,4.3585350513458,3,versionB_stim.csv,ReadVersion.csv,Read,Read2,LEAGUE,BASEBALL,Study2,F,29,8,Study,User,-,,Study/JOL,"Study Phase",4244,,,-1,-1,,,,1
M20329189AT,d6auktk38s,"Mediated JOLs",1,42,2024-11-21T00:16:36+00:00,2.0635759830475,3,versionB_stim.csv,ReadVersion.csv,Read,Read2,WINDOW,HANDLE,Study2,M,19,29,Study,User,-,,Study/JOL,"Study Phase",1954,,,-1,-1,,,,1
M20329189AT,d6auktk38s,"Mediated JOLs",1,43,2024-11-21T00:16:38+00:00,1.8514058589935,3,versionB_stim.csv,ReadVersion.csv,Read,Read2,DOCUMENT,PAPER,Study2,F,27,36,Study,User,-,,Study/JOL,"Study Phase",1739,,,-1,-1,,,,1
M20329189AT,d6auktk38s,"Mediated JOLs",1,44,2024-11-21T00:16:41+00:00,2.8796391487122,3,versionB_stim.csv,ReadVersion.csv,Read,Read2,SCHOOL,SIGN,Study2,M,7,41,Study,User,-,,Study/JOL,"Study Phase",2771,,,-1,-1,,,,1
M20329189AT,d6auktk38s,"Mediated JOLs",1,45,2024-11-21T00:16:45+00:00,3.6148838996887,3,versionB_stim.csv,ReadVersion.csv,Read,Read2,ARTERY,BRONZE,Study2,U,48,13,Study,User,-,,Study/JOL,"Study Phase",3490,,,-1,-1,,,,1
M20329189AT,d6auktk38s,"Mediated JOLs",1,46,2024-11-21T00:16:47+00:00,2.5009939670563,3,versionB_stim.csv,ReadVersion.csv,Read,Read2,DEATH,BUSINESS,Study2,U,44,46,Study,User,-,,Study/JOL,"Study Phase",2395,,,-1,-1,,,,1
M20329189AT,d6auktk38s,"Mediated JOLs",1,47,2024-11-21T00:16:50+00:00,3.2242829799652,3,versionB_stim.csv,ReadVersion.csv,Read,Read2,NURSE,COURT,Study2,M,11,39,Study,User,-,,Study/JOL,"Study Phase",3101,,,-1,-1,,,,1
M20329189AT,d6auktk38s,"Mediated JOLs",1,48,2024-11-21T00:16:53+00:00,2.164656162262,3,versionB_stim.csv,ReadVersion.csv,Read,Read2,GRILL,LEG,Study2,M,17,32,Study,User,-,,Study/JOL,"Study Phase",2011,,,-1,-1,,,,1
M20329189AT,d6auktk38s,"Mediated JOLs",1,49,2024-11-21T00:16:56+00:00,2.870414018631,3,versionB_stim.csv,ReadVersion.csv,Read,Read2,HORNET,STING,Study2,F,30,7,Study,User,-,,Study/JOL,"Study Phase",2718,,,-1,-1,,,,1
M20329189AT,d6auktk38s,"Mediated JOLs",1,50,2024-11-21T00:16:58+00:00,2.9162168502808,3,versionB_stim.csv,ReadVersion.csv,Read,Read2,PUSH,CLUTTER,Study2,U,41,49,Study,User,-,,Study/JOL,"Study Phase",2753,,,-1,-1,,,,1
M20329189AT,d6auktk38s,"Mediated JOLs",1,51,2024-11-21T00:17:01+00:00,2.8973701000214,3,versionB_stim.csv,ReadVersion.csv,Read,Read2,FEUD,FIGHT,Study2,F,31,26,Study,User,-,,Study/JOL,"Study Phase",2752,,,-1,-1,,,,1
M20329189AT,d6auktk38s,"Mediated JOLs",1,52,2024-11-21T00:17:04+00:00,3.123615026474,3,versionB_stim.csv,ReadVersion.csv,Read,Read2,EYES,TASTE,Study2,M,10,27,Study,User,-,,Study/JOL,"Study Phase",2988,,,-1,-1,,,,1
M20329189AT,d6auktk38s,"Mediated JOLs",1,53,2024-11-21T00:17:06+00:00,2.0154747962952,3,versionB_stim.csv,ReadVersion.csv,Read,Read2,NOODLE,STRING,BUFFER4,Buffer,52,55,Study,User,-,,Study/JOL,BUFFER2,1902,,,-1,-1,,,,1
M20329189AT,d6auktk38s,"Mediated JOLs",1,54,2024-11-21T00:17:08+00:00,1.9516041278839,3,versionB_stim.csv,ReadVersion.csv,Read,Read2,CAMP,ADVENTURE,BUFFER4,Buffer,55,52,Study,User,-,,Study/JOL,BUFFER2,1844,,,-1,-1,,,,1
M20329189AT,d6auktk38s,"Mediated JOLs",1,55,2024-11-21T00:17:10+00:00,2.0229799747467,3,versionB_stim.csv,ReadVersion.csv,Read,Read2,SCARE,FRIGHT,BUFFER1,Buffer,59,59,Study,User,-,,Study/JOL,BUFFER2,1895,,,-1,-1,,,,1
M20329189AT,d6auktk38s,"Mediated JOLs",1,56,2024-11-21T00:17:13+00:00,2.2067930698395,3,versionB_stim.csv,ReadVersion.csv,Read,Read2,SHERRIF,POLICE,BUFFER2,Buffer,107,108,Study,User,-,,Study/JOL,BUFFER2,2057,,,-1,-1,,,,1
M20329189AT,d6auktk38s,"Mediated JOLs",1,57,2024-11-21T00:17:15+00:00,2.5958108901978,3,versionB_stim.csv,ReadVersion.csv,Read,Read2,PITCHER,CATCHER,BUFFER1,Buffer,57,58,Study,User,-,,Study/JOL,BUFFER2,2452,,,-1,-1,,,,1
M20329189AT,d6auktk38s,"Mediated JOLs",1,58,2024-11-21T00:17:17+00:00,2.0782539844513,3,versionB_stim.csv,ReadVersion.csv,Read,Read2,,,,,,0,Instruct,User,-,"You have completed this section. Please press Enter.",Filler_Instruction,Instruct2,1945,,,-1,-1,,,,1
M20329189AT,d6auktk38s,"Mediated JOLs",1,59,2024-11-21T00:19:18+00:00,120.31641101837,3,versionB_stim.csv,ReadVersion.csv,Read,Read2,,,,,,0,FreeRecall,120,120,"Please list the 50 US states in alphabetical order. The task will automatically advance to the next screen after two minutes.",,Filler1,120002,"Alabama Arizona Alaska california Colorado conneticut Delaware hawaii Idaho Indiana ",0,3537,76553,0,0,,0.983
M20329189AT,d6auktk38s,"Mediated JOLs",1,60,2024-11-21T00:19:29+00:00,11.407314062119,3,versionB_stim.csv,ReadVersion.csv,Read,Read2,,,,,,0,Instruct,-,10,"You will now be presented with the first word from each of the previously studied item pairs. Please type the missing word. If you do not know the word, you may guess or press Enter to skip forward to the next pair.",,Instruct3,11246,,,-1,-1,,,,1
M20329189AT,d6auktk38s,"Mediated JOLs",1,61,2024-11-21T00:19:44+00:00,15.4595079422,3,versionB_stim.csv,ReadVersion.csv,Read,Read2,SICK,HIDE,Study2,U,45,43,Test,User,-,,Recall,Recall1,15302,Well,25,14519,14739,0,0,,1
M20329189AT,d6auktk38s,"Mediated JOLs",1,62,2024-11-21T00:19:47+00:00,2.4122109413147,3,versionB_stim.csv,ReadVersion.csv,Read,Read2,CHILL,COLD,Study2,F,32,14,Test,User,-,,Recall,Recall1,2261,Cold,100,1535,1947,1,1,,1
M20329189AT,d6auktk38s,"Mediated JOLs",1,63,2024-11-21T00:19:50+00:00,2.5940001010895,3,versionB_stim.csv,ReadVersion.csv,Read,Read2,HORNET,STING,Study2,F,30,7,Test,User,-,,Recall,Recall1,2447,Sting,100,1326,2034,1,1,,1
M20329189AT,d6auktk38s,"Mediated JOLs",1,64,2024-11-21T00:19:55+00:00,5.8888020515442,3,versionB_stim.csv,ReadVersion.csv,Read,Read2,SUMMER,WHITE,Study2,M,6,44,Test,User,-,,Recall,Recall1,5747,March,20,2612,4992,0,0,,1
M20329189AT,d6auktk38s,"Mediated JOLs",1,65,2024-11-21T00:20:02+00:00,6.209676027298,3,versionB_stim.csv,ReadVersion.csv,Read,Read2,LEAGUE,BASEBALL,Study2,F,29,8,Test,User,-,,Recall,Recall1,6068,"Baseball ",100,4127,5169,1,1,,1
M20329189AT,d6auktk38s,"Mediated JOLs",1,66,2024-11-21T00:20:07+00:00,5.7833249568939,3,versionB_stim.csv,ReadVersion.csv,Read,Read2,BENCH,HORN,Study2,U,43,40,Test,User,-,,Recall,Recall1,5633,Seat,0,4109,5391,0,0,,1
M20329189AT,d6auktk38s,"Mediated JOLs",1,67,2024-11-21T00:20:20+00:00,12.889662027359,3,versionB_stim.csv,ReadVersion.csv,Read,Read2,SCHOOL,SIGN,Study2,M,7,41,Test,User,-,,Recall,Recall1,12754,Bus,28.571428571429,10950,11260,0,0,,1
M20329189AT,d6auktk38s,"Mediated JOLs",1,68,2024-11-21T00:20:27+00:00,7.2191119194031,3,versionB_stim.csv,ReadVersion.csv,Read,Read2,HAPPY,CAR,Study2,U,37,47,Test,User,-,,Recall,Recall1,7066,,0,-1,-1,0,0,,1
M20329189AT,d6auktk38s,"Mediated JOLs",1,69,2024-11-21T00:20:30+00:00,2.9827260971069,3,versionB_stim.csv,ReadVersion.csv,Read,Read2,CACTUS,PLANT,Study2,F,21,28,Test,User,-,,Recall,Recall1,2836,Plant,100,1758,2549,1,1,,1
M20329189AT,d6auktk38s,"Mediated JOLs",1,70,2024-11-21T00:20:35+00:00,4.3621168136597,3,versionB_stim.csv,ReadVersion.csv,Read,Read2,ARTERY,BRONZE,Study2,U,48,13,Test,User,-,,Recall,Recall1,4219,"Bronze ",100,1967,3157,1,1,,1
M20329189AT,d6auktk38s,"Mediated JOLs",1,71,2024-11-21T00:20:41+00:00,6.5780310630798,3,versionB_stim.csv,ReadVersion.csv,Read,Read2,PANTS,DOG,Study2,M,8,19,Test,User,-,,Recall,Recall1,6429,Shoes,25,4609,5634,0,0,,1
M20329189AT,d6auktk38s,"Mediated JOLs",1,72,2024-11-21T00:20:57+00:00,15.720479011536,3,versionB_stim.csv,ReadVersion.csv,Read,Read2,DEATH,BUSINESS,Study2,U,44,46,Test,User,-,,Recall,Recall1,15571,"Beginning ",35.294117647059,11085,11511,0,0,,1
M20329189AT,d6auktk38s,"Mediated JOLs",1,73,2024-11-21T00:21:03+00:00,6.3022711277008,3,versionB_stim.csv,ReadVersion.csv,Read,Read2,KING,VASE,Study2,U,36,23,Test,User,-,,Recall,Recall1,6159,"Throne ",20,3397,4852,0,0,,1
M20329189AT,d6auktk38s,"Mediated JOLs",1,74,2024-11-21T00:21:07+00:00,3.3795018196106,3,versionB_stim.csv,ReadVersion.csv,Read,Read2,VALLEY,TOP,Study2,M,18,25,Test,User,-,,Recall,Recall1,3228,,0,-1,-1,0,0,,1
M20329189AT,d6auktk38s,"Mediated JOLs",1,75,2024-11-21T00:21:13+00:00,6.6475141048431,3,versionB_stim.csv,ReadVersion.csv,Read,Read2,OVEN,WEAVE,Study2,M,16,33,Test,User,-,,Recall,Recall1,6508,Stove,40,3945,5667,0,0,,1
M20329189AT,d6auktk38s,"Mediated JOLs",1,76,2024-11-21T00:21:16+00:00,2.077339887619,3,versionB_stim.csv,ReadVersion.csv,Read,Read2,CHERRY,RED,Study2,F,25,30,Test,User,-,,Recall,Recall1,1930,Red,100,1330,1635,1,1,,1
M20329189AT,d6auktk38s,"Mediated JOLs",1,77,2024-11-21T00:21:19+00:00,3.7485342025757,3,versionB_stim.csv,ReadVersion.csv,Read,Read2,DIETARY,SACK,Study2,U,42,18,Test,User,-,,Recall,Recall1,3602,Plan,25,2241,3125,0,0,,1
M20329189AT,d6auktk38s,"Mediated JOLs",1,78,2024-11-21T00:21:27+00:00,7.4656629562378,3,versionB_stim.csv,ReadVersion.csv,Read,Read2,RAKE,PLANT,Study2,M,14,38,Test,User,-,,Recall,Recall1,7322,Pile,44.444444444444,5853,6597,0,0,,1
M20329189AT,d6auktk38s,"Mediated JOLs",1,79,2024-11-21T00:21:33+00:00,6.3198549747467,3,versionB_stim.csv,ReadVersion.csv,Read,Read2,GRILL,LEG,Study2,M,17,32,Test,User,-,,Recall,Recall1,6171,Cook,0,4938,5660,0,0,,1
M20329189AT,d6auktk38s,"Mediated JOLs",1,80,2024-11-21T00:21:36+00:00,2.8831748962402,3,versionB_stim.csv,ReadVersion.csv,Read,Read2,INCENSE,SMELL,Study2,F,28,9,Test,User,-,,Recall,Recall1,2740,Smell,100,1354,2195,1,1,,1
M20329189AT,d6auktk38s,"Mediated JOLs",1,81,2024-11-21T00:21:39+00:00,3.3868060112,3,versionB_stim.csv,ReadVersion.csv,Read,Read2,CHOP,CUT,Study2,F,22,21,Test,User,-,,Recall,Recall1,3240,Cut,100,1435,2813,1,1,,1
M20329189AT,d6auktk38s,"Mediated JOLs",1,82,2024-11-21T00:21:42+00:00,2.9792730808258,3,versionB_stim.csv,ReadVersion.csv,Read,Read2,SUGAR,RIDDLE,Study2,U,40,34,Test,User,-,,Recall,Recall1,2830,Sweet,18.181818181818,1828,2553,0,0,,1
M20329189AT,d6auktk38s,"Mediated JOLs",1,83,2024-11-21T00:22:01+00:00,18.374826908112,3,versionB_stim.csv,ReadVersion.csv,Read,Read2,REALITY,WATER,Study2,M,9,48,Test,User,-,,Recall,Recall1,18219,Fake,44.444444444444,17084,17776,0,0,,1
M20329189AT,d6auktk38s,"Mediated JOLs",1,84,2024-11-21T00:22:05+00:00,4.0943219661713,3,versionB_stim.csv,ReadVersion.csv,Read,Read2,EYES,TASTE,Study2,M,10,27,Test,User,-,,Recall,Recall1,3943,Bright,18.181818181818,2871,3674,0,0,,1
M20329189AT,d6auktk38s,"Mediated JOLs",1,85,2024-11-21T00:22:09+00:00,4.1839940547943,3,versionB_stim.csv,ReadVersion.csv,Read,Read2,BOTH,OUNCE,Study2,U,47,51,Test,User,-,,Recall,Recall1,4049,None,44.444444444444,1683,2359,0,0,,1
M20329189AT,d6auktk38s,"Mediated JOLs",1,86,2024-11-21T00:22:16+00:00,7.2510299682617,3,versionB_stim.csv,ReadVersion.csv,Read,Read2,STRONG,ACCIDENT,Study2,U,39,42,Test,User,-,,Recall,Recall1,7100,,0,-1,-1,0,0,,1
M20329189AT,d6auktk38s,"Mediated JOLs",1,87,2024-11-21T00:22:22+00:00,6.2387659549713,3,versionB_stim.csv,ReadVersion.csv,Read,Read2,PUSH,CLUTTER,Study2,U,41,49,Test,User,-,,Recall,Recall1,6079,Over,36.363636363636,4582,5622,0,0,,1
M20329189AT,d6auktk38s,"Mediated JOLs",1,88,2024-11-21T00:22:26+00:00,4.0118222236633,3,versionB_stim.csv,ReadVersion.csv,Read,Read2,CHISEL,HAMMER,Study2,F,23,50,Test,User,-,,Recall,Recall1,3861,Hammer,100,1971,2695,1,1,,1
M20329189AT,d6auktk38s,"Mediated JOLs",1,89,2024-11-21T00:22:32+00:00,5.0317828655243,3,versionB_stim.csv,ReadVersion.csv,Read,Read2,NURSE,COURT,Study2,M,11,39,Test,User,-,,Recall,Recall1,4885,Well,0,2353,2979,0,0,,1
M20329189AT,d6auktk38s,"Mediated JOLs",1,90,2024-11-21T00:22:37+00:00,5.6814711093903,3,versionB_stim.csv,ReadVersion.csv,Read,Read2,BLAZE,FIRE,Study2,F,26,12,Test,User,-,,Recall,Recall1,5527,Pan,0,3557,3876,0,0,,1
M20329189AT,d6auktk38s,"Mediated JOLs",1,91,2024-11-21T00:22:43+00:00,5.3180248737335,3,versionB_stim.csv,ReadVersion.csv,Read,Read2,LEASE,TOIL,Study2,U,46,10,Test,User,-,,Recall,Recall1,5177,,0,-1,-1,0,0,,1
M20329189AT,d6auktk38s,"Mediated JOLs",1,92,2024-11-21T00:22:50+00:00,7.7829880714417,3,versionB_stim.csv,ReadVersion.csv,Read,Read2,FEUD,FIGHT,Study2,F,31,26,Test,User,-,,Recall,Recall1,7634,Fine,44.444444444444,5963,7273,0,0,,1
M20329189AT,d6auktk38s,"Mediated JOLs",1,93,2024-11-21T00:22:59+00:00,8.5934610366821,3,versionB_stim.csv,ReadVersion.csv,Read,Read2,SOAP,THIRST,Study2,M,12,20,Test,User,-,,Recall,Recall1,8454,Clean,0,6195,7434,0,0,,1
M20329189AT,d6auktk38s,"Mediated JOLs",1,94,2024-11-21T00:23:02+00:00,3.2524609565735,3,versionB_stim.csv,ReadVersion.csv,Read,Read2,ATTIRE,CLOTHES,Study2,F,24,15,Test,User,-,,Recall,Recall1,3102,Wear,18.181818181818,1977,2770,0,0,,1
M20329189AT,d6auktk38s,"Mediated JOLs",1,95,2024-11-21T00:23:07+00:00,5.1175119876862,3,versionB_stim.csv,ReadVersion.csv,Read,Read2,DOCUMENT,PAPER,Study2,F,27,36,Test,User,-,,Recall,Recall1,4974,Paper,100,2426,3248,1,1,,1
M20329189AT,d6auktk38s,"Mediated JOLs",1,96,2024-11-21T00:23:14+00:00,6.2857420444489,3,versionB_stim.csv,ReadVersion.csv,Read,Read2,CASH,LEG,Study2,U,50,45,Test,User,-,,Recall,Recall1,6133,Credit,22.222222222222,2628,4607,0,0,,1
M20329189AT,d6auktk38s,"Mediated JOLs",1,97,2024-11-21T00:23:18+00:00,4.342985868454,3,versionB_stim.csv,ReadVersion.csv,Read,Read2,TRAP,MAN,Study2,M,15,11,Test,User,-,,Recall,Recall1,4189,,0,-1,-1,0,0,,1
M20329189AT,d6auktk38s,"Mediated JOLs",1,98,2024-11-21T00:23:23+00:00,5.2604410648346,3,versionB_stim.csv,ReadVersion.csv,Read,Read2,HEAVY,BIRD,Study2,M,13,31,Test,User,-,,Recall,Recall1,5109,Weak,0,2996,3803,0,0,,1
M20329189AT,d6auktk38s,"Mediated JOLs",1,99,2024-11-21T00:23:27+00:00,4.2956290245056,3,versionB_stim.csv,ReadVersion.csv,Read,Read2,BRIDGE,WATER,Study2,F,35,35,Test,User,-,,Recall,Recall1,4156,Port,22.222222222222,3345,3863,0,0,,1
M20329189AT,d6auktk38s,"Mediated JOLs",1,100,2024-11-21T00:23:31+00:00,3.4393908977509,3,versionB_stim.csv,ReadVersion.csv,Read,Read2,ART,WOLF,Study2,U,38,22,Test,User,-,,Recall,Recall1,3294,Styke,0,2011,2952,0,0,,1
M20329189AT,d6auktk38s,"Mediated JOLs",1,101,2024-11-21T00:23:34+00:00,3.5935761928558,3,versionB_stim.csv,ReadVersion.csv,Read,Read2,RAZOR,ARM,Study2,M,20,37,Test,User,-,,Recall,Recall1,3454,Edge,0,2125,3048,0,0,,1
M20329189AT,d6auktk38s,"Mediated JOLs",1,102,2024-11-21T00:23:39+00:00,4.223424911499,3,versionB_stim.csv,ReadVersion.csv,Read,Read2,HERD,COW,Study2,F,33,24,Test,User,-,,Recall,Recall1,4069,,0,-1,-1,0,0,,1
M20329189AT,d6auktk38s,"Mediated JOLs",1,103,2024-11-21T00:23:43+00:00,4.0411860942841,3,versionB_stim.csv,ReadVersion.csv,Read,Read2,WASP,BUG,Study2,F,34,16,Test,User,-,,Recall,Recall1,3896,Sting,25,1784,3396,0,0,,1
M20329189AT,d6auktk38s,"Mediated JOLs",1,104,2024-11-21T00:23:49+00:00,6.0300378799438,3,versionB_stim.csv,ReadVersion.csv,Read,Read2,MIRROR,CHILDREN,Study2,U,49,17,Test,User,-,,Recall,Recall1,5879,"Picture ",40,3458,4401,0,0,,1
M20329189AT,d6auktk38s,"Mediated JOLs",1,105,2024-11-21T00:23:56+00:00,7.042200088501,3,versionB_stim.csv,ReadVersion.csv,Read,Read2,WINDOW,HANDLE,Study2,M,19,29,Test,User,-,,Recall,Recall1,6893,Close,36.363636363636,4073,6551,0,0,,1
M20329189AT,d6auktk38s,"Mediated JOLs",1,106,2024-11-21T00:24:07+00:00,10.803817033768,3,versionB_stim.csv,ReadVersion.csv,Read,Read2,,,,,,0,Instruct,-,10,"You will now be presented with a new set of word pairs. Please study each pair. Remember that your memory will be tested! When finished, press Enter to move to the next pair.",Initial_Instruct,Instruct4,10657,,,-1,-1,,,,1
M20329189AT,d6auktk38s,"Mediated JOLs",1,107,2024-11-21T00:24:08+00:00,1.2827777862549,3,versionB_stim.csv,ReadVersion.csv,Read,Read2,,,,,,0,Instruct,User,-,"Press Enter when you are readty to begin",,Instruct11,1137,,,-1,-1,,,,1
M20329189AT,d6auktk38s,"Mediated JOLs",1,108,2024-11-21T00:24:11+00:00,3.3567671775818,3,versionB_stim.csv,ReadVersion.csv,Read,Read2,MALT,CHOCOLATE,BUFFER2,Buffer,108,107,Study,User,-,,Study/JOL,BUFFER2,3219,,,-1,-1,,,,1
M20329189AT,d6auktk38s,"Mediated JOLs",1,109,2024-11-21T00:24:14+00:00,2.9681918621063,3,versionB_stim.csv,ReadVersion.csv,Read,Read2,TREES,GREEN,BUFFER1,Buffer,56,61,Study,User,-,,Study/JOL,BUFFER2,2833,,,-1,-1,,,,1
M20329189AT,d6auktk38s,"Mediated JOLs",1,110,2024-11-21T00:24:17+00:00,2.996463060379,3,versionB_stim.csv,ReadVersion.csv,Read,Read2,SPACE,JAM,BUFFER1,Buffer,60,60,Study,User,-,,Study/JOL,BUFFER2,2854,,,-1,-1,,,,1
M20329189AT,d6auktk38s,"Mediated JOLs",1,111,2024-11-21T00:24:21+00:00,3.8683149814606,3,versionB_stim.csv,ReadVersion.csv,Read,Read2,MOON,SPACE,BUFFER2,Buffer,109,111,Study,User,-,,Study/JOL,BUFFER2,3733,,,-1,-1,,,,1
M20329189AT,d6auktk38s,"Mediated JOLs",1,112,2024-11-21T00:24:25+00:00,4.1493809223175,3,versionB_stim.csv,ReadVersion.csv,Read,Read2,THING,STUFF,BUFFER2,Buffer,110,109,Study,User,-,,Study/JOL,BUFFER2,4009,,,-1,-1,,,,1
M20329189AT,d6auktk38s,"Mediated JOLs",1,113,2024-11-21T00:24:29+00:00,4.0513281822205,3,versionB_stim.csv,ReadVersion.csv,Read,Read2,ROUGH,WORM,Study1,M,65,90,Study,User,-,,Study/JOL,"Study Phase2",3904,,,-1,-1,,,,1
M20329189AT,d6auktk38s,"Mediated JOLs",1,114,2024-11-21T00:24:34+00:00,4.3989429473877,3,versionB_stim.csv,ReadVersion.csv,Read,Read2,AFFECTION,LOVE,Study1,F,86,106,Study,User,-,,Study/JOL,"Study Phase2",4246,,,-1,-1,,,,1
M20329189AT,d6auktk38s,"Mediated JOLs",1,115,2024-11-21T00:24:38+00:00,4.4105908870697,3,versionB_stim.csv,ReadVersion.csv,Read,Read2,LION,FLAG,Study1,M,61,87,Study,User,-,,Study/JOL,"Study Phase2",4260,,,-1,-1,,,,1
M20329189AT,d6auktk38s,"Mediated JOLs",1,116,2024-11-21T00:24:42+00:00,3.4227089881897,3,versionB_stim.csv,ReadVersion.csv,Read,Read2,NAP,SLEEP,Study1,F,84,79,Study,User,-,,Study/JOL,"Study Phase2",3270,,,-1,-1,,,,1
M20329189AT,d6auktk38s,"Mediated JOLs",1,117,2024-11-21T00:24:44+00:00,2.5008261203766,3,versionB_stim.csv,ReadVersion.csv,Read,Read2,STRETCH,CLOTH,Study1,U,92,86,Study,User,-,,Study/JOL,"Study Phase2",2342,,,-1,-1,,,,1
M20329189AT,d6auktk38s,"Mediated JOLs",1,118,2024-11-21T00:24:49+00:00,4.8550288677216,3,versionB_stim.csv,ReadVersion.csv,Read,Read2,LISTEN,FICTION,Study1,U,99,93,Study,User,-,,Study/JOL,"Study Phase2",4703,,,-1,-1,,,,1
M20329189AT,d6auktk38s,"Mediated JOLs",1,119,2024-11-21T00:24:56+00:00,7.3840391635895,3,versionB_stim.csv,ReadVersion.csv,Read,Read2,SCALP,HEAD,Study1,F,78,88,Study,User,-,,Study/JOL,"Study Phase2",7238,,,-1,-1,,,,1
M20329189AT,d6auktk38s,"Mediated JOLs",1,120,2024-11-21T00:24:59+00:00,2.3040368556976,3,versionB_stim.csv,ReadVersion.csv,Read,Read2,CREDIT,CARD,Study1,F,88,84,Study,User,-,,Study/JOL,"Study Phase2",2146,,,-1,-1,,,,1
M20329189AT,d6auktk38s,"Mediated JOLs",1,121,2024-11-21T00:25:02+00:00,3.1907730102539,3,versionB_stim.csv,ReadVersion.csv,Read,Read2,TREE,PANCAKES,Study1,M,66,101,Study,User,-,,Study/JOL,"Study Phase2",3036,,,-1,-1,,,,1
M20329189AT,d6auktk38s,"Mediated JOLs",1,122,2024-11-21T00:25:06+00:00,4.1563811302185,3,versionB_stim.csv,ReadVersion.csv,Read,Read2,WORD,SENTENCE,Study1,F,82,103,Study,User,-,,Study/JOL,"Study Phase2",4000,,,-1,-1,,,,1
M20329189AT,d6auktk38s,"Mediated JOLs",1,123,2024-11-21T00:25:10+00:00,4.4010179042816,3,versionB_stim.csv,ReadVersion.csv,Read,Read2,HYGIENE,CLEAN,Study1,F,83,85,Study,User,-,,Study/JOL,"Study Phase2",4243,,,-1,-1,,,,1
M20329189AT,d6auktk38s,"Mediated JOLs",1,124,2024-11-21T00:25:13+00:00,2.6882700920105,3,versionB_stim.csv,ReadVersion.csv,Read,Read2,BIRTHDAY,APPLE,Study1,M,64,65,Study,User,-,,Study/JOL,"Study Phase2",2546,,,-1,-1,,,,1
M20329189AT,d6auktk38s,"Mediated JOLs",1,125,2024-11-21T00:25:16+00:00,2.701122045517,3,versionB_stim.csv,ReadVersion.csv,Read,Read2,SWAN,BIRD,Study1,F,81,71,Study,User,-,,Study/JOL,"Study Phase2",2558,,,-1,-1,,,,1
M20329189AT,d6auktk38s,"Mediated JOLs",1,126,2024-11-21T00:25:20+00:00,4.0387609004974,3,versionB_stim.csv,ReadVersion.csv,Read,Read2,HORSE,TIRE,Study1,M,69,75,Study,User,-,,Study/JOL,"Study Phase2",3900,,,-1,-1,,,,1
M20329189AT,d6auktk38s,"Mediated JOLs",1,127,2024-11-21T00:25:22+00:00,2.324695110321,3,versionB_stim.csv,ReadVersion.csv,Read,Read2,WAR,LOUD,Study1,M,63,98,Study,User,-,,Study/JOL,"Study Phase2",2163,,,-1,-1,,,,1
M20329189AT,d6auktk38s,"Mediated JOLs",1,128,2024-11-21T00:25:25+00:00,2.7290279865265,3,versionB_stim.csv,ReadVersion.csv,Read,Read2,CEILING,RUG,Study1,M,70,69,Study,User,-,,Study/JOL,"Study Phase2",2582,,,-1,-1,,,,1
M20329189AT,d6auktk38s,"Mediated JOLs",1,129,2024-11-21T00:25:28+00:00,3.6078248023987,3,versionB_stim.csv,ReadVersion.csv,Read,Read2,MEAT,KEYS,Study1,U,96,77,Study,User,-,,Study/JOL,"Study Phase2",3462,,,-1,-1,,,,1
M20329189AT,d6auktk38s,"Mediated JOLs",1,130,2024-11-21T00:25:31+00:00,2.324963092804,3,versionB_stim.csv,ReadVersion.csv,Read,Read2,BEACH,SQUARE,Study1,M,62,68,Study,User,-,,Study/JOL,"Study Phase2",2171,,,-1,-1,,,,1
M20329189AT,d6auktk38s,"Mediated JOLs",1,131,2024-11-21T00:25:33+00:00,2.4186661243439,3,versionB_stim.csv,ReadVersion.csv,Read,Read2,WEDDING,HAND,Study1,M,72,82,Study,User,-,,Study/JOL,"Study Phase2",2276,,,-1,-1,,,,1
M20329189AT,d6auktk38s,"Mediated JOLs",1,132,2024-11-21T00:25:35+00:00,2.3142287731171,3,versionB_stim.csv,ReadVersion.csv,Read,Read2,SHELL,SHAKE,Study1,U,98,99,Study,User,-,,Study/JOL,"Study Phase2",2162,,,-1,-1,,,,1
M20329189AT,d6auktk38s,"Mediated JOLs",1,133,2024-11-21T00:25:41+00:00,5.6564540863037,3,versionB_stim.csv,ReadVersion.csv,Read,Read2,GIVE,STEAK,Study1,U,93,89,Study,User,-,,Study/JOL,"Study Phase2",5515,,,-1,-1,,,,1
M20329189AT,d6auktk38s,"Mediated JOLs",1,134,2024-11-21T00:26:07+00:00,25.42409491539,3,versionB_stim.csv,ReadVersion.csv,Read,Read2,MULE,DONKEY,Study1,F,85,95,Study,User,-,,Study/JOL,"Study Phase2",25271,,,-1,-1,,,,1
M20329189AT,d6auktk38s,"Mediated JOLs",1,135,2024-11-21T00:26:12+00:00,5.6999502182007,3,versionB_stim.csv,ReadVersion.csv,Read,Read2,LITTER,TRASH,Study1,F,76,91,Study,User,-,,Study/JOL,"Study Phase2",5551,,,-1,-1,,,,1
M20329189AT,d6auktk38s,"Mediated JOLs",1,136,2024-11-21T00:26:16+00:00,3.5981438159943,3,versionB_stim.csv,ReadVersion.csv,Read,Read2,SOON,BELT,Study1,U,101,83,Study,User,-,,Study/JOL,"Study Phase2",3456,,,-1,-1,,,,1
M20329189AT,d6auktk38s,"Mediated JOLs",1,137,2024-11-21T00:26:19+00:00,3.1439530849457,3,versionB_stim.csv,ReadVersion.csv,Read,Read2,MIRROR,MAROON,Study1,U,91,66,Study,User,-,,Study/JOL,"Study Phase2",2997,,,-1,-1,,,,1
M20329189AT,d6auktk38s,"Mediated JOLs",1,138,2024-11-21T00:26:23+00:00,3.9149188995361,3,versionB_stim.csv,ReadVersion.csv,Read,Read2,TUNA,FISH,Study1,F,90,76,Study,User,-,,Study/JOL,"Study Phase2",3768,,,-1,-1,,,,1
M20329189AT,d6auktk38s,"Mediated JOLs",1,139,2024-11-21T00:26:29+00:00,6.1926760673523,3,versionB_stim.csv,ReadVersion.csv,Read,Read2,KEYS,ROD,Study1,U,100,63,Study,User,-,,Study/JOL,"Study Phase2",6049,,,-1,-1,,,,1
M20329189AT,d6auktk38s,"Mediated JOLs",1,140,2024-11-21T00:26:35+00:00,6.0577850341797,3,versionB_stim.csv,ReadVersion.csv,Read,Read2,SIP,DRINK,Study1,F,87,72,Study,User,-,,Study/JOL,"Study Phase2",5908,,,-1,-1,,,,1
M20329189AT,d6auktk38s,"Mediated JOLs",1,141,2024-11-21T00:26:40+00:00,4.8297700881958,3,versionB_stim.csv,ReadVersion.csv,Read,Read2,CIRCLE,FUN,Study1,M,68,81,Study,User,-,,Study/JOL,"Study Phase2",4685,,,-1,-1,,,,1
M20329189AT,d6auktk38s,"Mediated JOLs",1,142,2024-11-21T00:26:43+00:00,3.240916967392,3,versionB_stim.csv,ReadVersion.csv,Read,Read2,WAGE,MONEY,Study1,F,77,102,Study,User,-,,Study/JOL,"Study Phase2",3062,,,-1,-1,,,,1
M20329189AT,d6auktk38s,"Mediated JOLs",1,143,2024-11-21T00:26:46+00:00,2.9554059505463,3,versionB_stim.csv,ReadVersion.csv,Read,Read2,TEMPERATURE,MORNING,Study1,U,103,104,Study,User,-,,Study/JOL,"Study Phase2",2792,,,-1,-1,,,,1
M20329189AT,d6auktk38s,"Mediated JOLs",1,144,2024-11-21T00:26:50+00:00,4.2893919944763,3,versionB_stim.csv,ReadVersion.csv,Read,Read2,FUZZY,BANG,Study1,U,105,96,Study,User,-,,Study/JOL,"Study Phase2",4144,,,-1,-1,,,,1
M20329189AT,d6auktk38s,"Mediated JOLs",1,145,2024-11-21T00:26:53+00:00,2.3132410049438,3,versionB_stim.csv,ReadVersion.csv,Read,Read2,HARD,BALL,Study1,M,75,105,Study,User,-,,Study/JOL,"Study Phase2",2166,,,-1,-1,,,,1
M20329189AT,d6auktk38s,"Mediated JOLs",1,146,2024-11-21T00:26:56+00:00,3.3390319347382,3,versionB_stim.csv,ReadVersion.csv,Read,Read2,CRACKLE,ELECTION,Study1,U,94,62,Study,User,-,,Study/JOL,"Study Phase2",3183,,,-1,-1,,,,1
M20329189AT,d6auktk38s,"Mediated JOLs",1,147,2024-11-21T00:27:00+00:00,3.6922750473022,3,versionB_stim.csv,ReadVersion.csv,Read,Read2,TOOTH,COMB,Study1,M,74,80,Study,User,-,,Study/JOL,"Study Phase2",3533,,,-1,-1,,,,1
M20329189AT,d6auktk38s,"Mediated JOLs",1,148,2024-11-21T00:27:03+00:00,3.0656740665436,3,versionB_stim.csv,ReadVersion.csv,Read,Read2,SIGN,TICK,Study1,U,102,100,Study,User,-,,Study/JOL,"Study Phase2",2926,,,-1,-1,,,,1
M20329189AT,d6auktk38s,"Mediated JOLs",1,149,2024-11-21T00:27:07+00:00,4.0050349235535,3,versionB_stim.csv,ReadVersion.csv,Read,Read2,ORCHID,FLOWER,Study1,F,89,97,Study,User,-,,Study/JOL,"Study Phase2",3844,,,-1,-1,,,,1
M20329189AT,d6auktk38s,"Mediated JOLs",1,150,2024-11-21T00:27:12+00:00,5.4971880912781,3,versionB_stim.csv,ReadVersion.csv,Read,Read2,MAZE,PHONE,Study1,U,97,74,Study,User,-,,Study/JOL,"Study Phase2",5347,,,-1,-1,,,,1
M20329189AT,d6auktk38s,"Mediated JOLs",1,151,2024-11-21T00:27:16+00:00,3.1491088867188,3,versionB_stim.csv,ReadVersion.csv,Read,Read2,CRY,BEER,Study1,M,71,70,Study,User,-,,Study/JOL,"Study Phase2",2996,,,-1,-1,,,,1
M20329189AT,d6auktk38s,"Mediated JOLs",1,152,2024-11-21T00:27:21+00:00,5.8169400691986,3,versionB_stim.csv,ReadVersion.csv,Read,Read2,BAT,JUMP,Study1,M,67,64,Study,User,-,,Study/JOL,"Study Phase2",5674,,,-1,-1,,,,1
M20329189AT,d6auktk38s,"Mediated JOLs",1,153,2024-11-21T00:27:26+00:00,4.9654538631439,3,versionB_stim.csv,ReadVersion.csv,Read,Read2,DAY,BLACK,Study1,M,73,92,Study,User,-,,Study/JOL,"Study Phase2",4821,,,-1,-1,,,,1
M20329189AT,d6auktk38s,"Mediated JOLs",1,154,2024-11-21T00:27:35+00:00,9.1495461463928,3,versionB_stim.csv,ReadVersion.csv,Read,Read2,VEHICLE,CHARM,Study1,U,95,73,Study,User,-,,Study/JOL,"Study Phase2",8976,,,-1,-1,,,,1
M20329189AT,d6auktk38s,"Mediated JOLs",1,155,2024-11-21T00:27:38+00:00,2.2211968898773,3,versionB_stim.csv,ReadVersion.csv,Read,Read2,MULE,DONKEY,Study1,F,79,67,Study,User,-,,Study/JOL,"Study Phase2",1978,,,-1,-1,,,,1
M20329189AT,d6auktk38s,"Mediated JOLs",1,156,2024-11-21T00:27:39+00:00,1.7542150020599,3,versionB_stim.csv,ReadVersion.csv,Read,Read2,ROOT,PLANT,Study1,F,80,78,Study,User,-,,Study/JOL,"Study Phase2",1576,,,-1,-1,,,,1
M20329189AT,d6auktk38s,"Mediated JOLs",1,157,2024-11-21T00:27:44+00:00,4.3606450557709,3,versionB_stim.csv,ReadVersion.csv,Read,Read2,CAKE,HAND,Study1,U,104,94,Study,User,-,,Study/JOL,"Study Phase2",4206,,,-1,-1,,,,1
M20329189AT,d6auktk38s,"Mediated JOLs",1,158,2024-11-21T00:27:46+00:00,2.0944468975067,3,versionB_stim.csv,ReadVersion.csv,Read,Read2,SHRIMP,FISH,BUFFER4,Buffer,53,54,Study,User,-,,Study/JOL,BUFFER2,1954,,,-1,-1,,,,1
M20329189AT,d6auktk38s,"Mediated JOLs",1,159,2024-11-21T00:27:48+00:00,2.11669921875,3,versionB_stim.csv,ReadVersion.csv,Read,Read2,PEANUT,BUTTER,BUFFER1,Buffer,58,57,Study,User,-,,Study/JOL,BUFFER2,1976,,,-1,-1,,,,1
M20329189AT,d6auktk38s,"Mediated JOLs",1,160,2024-11-21T00:27:50+00:00,1.768474817276,3,versionB_stim.csv,ReadVersion.csv,Read,Read2,GEESE,GOOSE,BUFFER2,Buffer,106,110,Study,User,-,,Study/JOL,BUFFER2,1634,,,-1,-1,,,,1
M20329189AT,d6auktk38s,"Mediated JOLs",1,161,2024-11-21T00:27:52+00:00,2.0141820907593,3,versionB_stim.csv,ReadVersion.csv,Read,Read2,ICE,FROZEN,BUFFER4,Buffer,54,56,Study,User,-,,Study/JOL,BUFFER2,1880,,,-1,-1,,,,1
M20329189AT,d6auktk38s,"Mediated JOLs",1,162,2024-11-21T00:27:55+00:00,3.0014710426331,3,versionB_stim.csv,ReadVersion.csv,Read,Read2,CARROT,POTATO,BUFFER4,Buffer,51,53,Study,User,-,,Study/JOL,BUFFER2,2859,,,-1,-1,,,,1
M20329189AT,d6auktk38s,"Mediated JOLs",1,163,2024-11-21T00:27:56+00:00,1.3983328342438,3,versionB_stim.csv,ReadVersion.csv,Read,Read2,,,,,,0,Instruct,User,-,"You have completed this section. Please press Enter.",Filler_Instruction,Instruct2,1257,,,-1,-1,,,,1
M20329189AT,d6auktk38s,"Mediated JOLs",1,164,2024-11-21T00:29:57+00:00,120.36109209061,3,versionB_stim.csv,ReadVersion.csv,Read,Read2,,,,,,0,FreeRecall,120,120,"Please list the 50 US states in alphabetical order. The task will automatically advance to the next screen after two minutes.",,Filler1,120003,"Alabama Alaska Arizona California Colorado conneticutt Delaware Hawaii Idaho Indiana Kansas Kentucky ",0,5978,114980,0,0,,1
M20329189AT,d6auktk38s,"Mediated JOLs",1,165,2024-11-21T00:30:09+00:00,12.131623983383,3,versionB_stim.csv,ReadVersion.csv,Read,Read2,,,,,,0,Instruct,-,10,"You will now be presented with the first word from each of the previously studied item pairs. Please type the missing word. If you do not know the word, you may guess or press Enter to skip forward to the next pair.",,Instruct3,11963,,,-1,-1,,,,1
M20329189AT,d6auktk38s,"Mediated JOLs",1,166,2024-11-21T00:30:13+00:00,4.3046340942383,3,versionB_stim.csv,ReadVersion.csv,Read,Read2,HARD,BALL,Study1,M,75,105,Test,User,-,,Recall,Recall2,4148,Ball,100,1726,3581,1,1,,1
M20329189AT,d6auktk38s,"Mediated JOLs",1,167,2024-11-21T00:30:16+00:00,3.0860369205475,3,versionB_stim.csv,ReadVersion.csv,Read,Read2,MULE,DONKEY,Study1,F,85,95,Test,User,-,,Recall,Recall2,2956,Donkey,100,1445,2340,1,1,,1
M20329189AT,d6auktk38s,"Mediated JOLs",1,168,2024-11-21T00:30:29+00:00,13.364587068558,3,versionB_stim.csv,ReadVersion.csv,Read,Read2,STRETCH,CLOTH,Study1,U,92,86,Test,User,-,,Recall,Recall2,13222,Pants,20,2793,12967,0,0,,1
M20329189AT,d6auktk38s,"Mediated JOLs",1,169,2024-11-21T00:30:34+00:00,4.4109299182892,3,versionB_stim.csv,ReadVersion.csv,Read,Read2,AFFECTION,LOVE,Study1,F,86,106,Test,User,-,,Recall,Recall2,4290,Love,100,3332,4092,1,1,,1
M20329189AT,d6auktk38s,"Mediated JOLs",1,170,2024-11-21T00:30:41+00:00,7.6107180118561,3,versionB_stim.csv,ReadVersion.csv,Read,Read2,WORD,SENTENCE,Study1,F,82,103,Test,User,-,,Recall,Recall2,7479,"Association ",21.052631578947,4976,5650,0,0,,1
M20329189AT,d6auktk38s,"Mediated JOLs",1,171,2024-11-21T00:30:44+00:00,2.7379829883575,3,versionB_stim.csv,ReadVersion.csv,Read,Read2,SHELL,SHAKE,Study1,U,98,99,Test,User,-,,Recall,Recall2,2603,Shock,60,1692,2253,0,0,,1
M20329189AT,d6auktk38s,"Mediated JOLs",1,172,2024-11-21T00:30:54+00:00,9.4936990737915,3,versionB_stim.csv,ReadVersion.csv,Read,Read2,TOOTH,COMB,Study1,M,74,80,Test,User,-,,Recall,Recall2,9348,Leg,0,6414,8978,0,0,,1
M20329189AT,d6auktk38s,"Mediated JOLs",1,173,2024-11-21T00:30:57+00:00,3.6143820285797,3,versionB_stim.csv,ReadVersion.csv,Read,Read2,SOON,BELT,Study1,U,101,83,Test,User,-,,Recall,Recall2,3484,After,22.222222222222,2620,3214,0,0,,1
M20329189AT,d6auktk38s,"Mediated JOLs",1,174,2024-11-21T00:31:04+00:00,6.8619298934937,3,versionB_stim.csv,ReadVersion.csv,Read,Read2,SCALP,HEAD,Study1,F,78,88,Test,User,-,,Recall,Recall2,6727,Head,100,3942,5431,1,1,,1
M20329189AT,d6auktk38s,"Mediated JOLs",1,175,2024-11-21T00:31:17+00:00,13.307037115097,3,versionB_stim.csv,ReadVersion.csv,Read,Read2,MIRROR,MAROON,Study1,U,91,66,Test,User,-,,Recall,Recall2,13156,After,36.363636363636,12396,12909,0,0,,1
M20329189AT,d6auktk38s,"Mediated JOLs",1,176,2024-11-21T00:31:25+00:00,7.6665349006653,3,versionB_stim.csv,ReadVersion.csv,Read,Read2,CIRCLE,FUN,Study1,M,68,81,Test,User,-,,Recall,Recall2,7534,Open,28.571428571429,6175,7095,0,0,,1
M20329189AT,d6auktk38s,"Mediated JOLs",1,177,2024-11-21T00:31:28+00:00,3.1436679363251,3,versionB_stim.csv,ReadVersion.csv,Read,Read2,ROOT,PLANT,Study1,F,80,78,Test,User,-,,Recall,Recall2,3018,Plants,90.909090909091,1526,2754,0,1,,1
M20329189AT,d6auktk38s,"Mediated JOLs",1,178,2024-11-21T00:31:31+00:00,2.5574882030487,3,versionB_stim.csv,ReadVersion.csv,Read,Read2,TUNA,FISH,Study1,F,90,76,Test,User,-,,Recall,Recall2,2419,Fish,100,1727,2065,1,1,,1
M20329189AT,d6auktk38s,"Mediated JOLs",1,179,2024-11-21T00:31:34+00:00,3.5079329013824,3,versionB_stim.csv,ReadVersion.csv,Read,Read2,WAGE,MONEY,Study1,F,77,102,Test,User,-,,Recall,Recall2,3378,Money,100,1419,2728,1,1,,1
M20329189AT,d6auktk38s,"Mediated JOLs",1,180,2024-11-21T00:31:37+00:00,2.983687877655,3,versionB_stim.csv,ReadVersion.csv,Read,Read2,MULE,DONKEY,Study1,F,79,67,Test,User,-,,Recall,Recall2,2845,Donkey,100,1421,2514,1,1,,1
M20329189AT,d6auktk38s,"Mediated JOLs",1,181,2024-11-21T00:31:51+00:00,13.200212001801,3,versionB_stim.csv,ReadVersion.csv,Read,Read2,MEAT,KEYS,Study1,U,96,77,Test,User,-,,Recall,Recall2,13052,,0,-1,-1,0,0,,1
M20329189AT,d6auktk38s,"Mediated JOLs",1,182,2024-11-21T00:31:55+00:00,4.2697031497955,3,versionB_stim.csv,ReadVersion.csv,Read,Read2,DAY,BLACK,Study1,M,73,92,Test,User,-,,Recall,Recall2,4122,After,20,3129,3860,0,0,,1
M20329189AT,d6auktk38s,"Mediated JOLs",1,183,2024-11-21T00:31:58+00:00,3.5572419166565,3,versionB_stim.csv,ReadVersion.csv,Read,Read2,SWAN,BIRD,Study1,F,81,71,Test,User,-,,Recall,Recall2,3431,Lake,0,2826,3266,0,0,,1
M20329189AT,d6auktk38s,"Mediated JOLs",1,184,2024-11-21T00:32:01+00:00,2.8825979232788,3,versionB_stim.csv,ReadVersion.csv,Read,Read2,HORSE,TIRE,Study1,M,69,75,Test,User,-,,Recall,Recall2,2749,,0,-1,-1,0,0,,1
M20329189AT,d6auktk38s,"Mediated JOLs",1,185,2024-11-21T00:32:04+00:00,2.491161108017,3,versionB_stim.csv,ReadVersion.csv,Read,Read2,GIVE,STEAK,Study1,U,93,89,Test,User,-,,Recall,Recall2,2346,Take,66.666666666667,1760,2166,0,0,,1
M20329189AT,d6auktk38s,"Mediated JOLs",1,186,2024-11-21T00:32:22+00:00,18.316693067551,3,versionB_stim.csv,ReadVersion.csv,Read,Read2,CRY,BEER,Study1,M,71,70,Test,User,-,,Recall,Recall2,18174,After,44.444444444444,17489,18010,0,0,,1
M20329189AT,d6auktk38s,"Mediated JOLs",1,187,2024-11-21T00:32:26+00:00,3.6060118675232,3,versionB_stim.csv,ReadVersion.csv,Read,Read2,SIGN,TICK,Study1,U,102,100,Test,User,-,,Recall,Recall2,3474,Post,25,2838,3313,0,0,,1
M20329189AT,d6auktk38s,"Mediated JOLs",1,188,2024-11-21T00:32:29+00:00,3.15110206604,3,versionB_stim.csv,ReadVersion.csv,Read,Read2,MAZE,PHONE,Study1,U,97,74,Test,User,-,,Recall,Recall2,3013,,0,-1,-1,0,0,,1
M20329189AT,d6auktk38s,"Mediated JOLs",1,189,2024-11-21T00:32:32+00:00,3.0383350849152,3,versionB_stim.csv,ReadVersion.csv,Read,Read2,CREDIT,CARD,Study1,F,88,84,Test,User,-,,Recall,Recall2,2901,Card,100,1709,2167,1,1,,1
M20329189AT,d6auktk38s,"Mediated JOLs",1,190,2024-11-21T00:32:39+00:00,7.2485539913177,3,versionB_stim.csv,ReadVersion.csv,Read,Read2,NAP,SLEEP,Study1,F,84,79,Test,User,-,,Recall,Recall2,7103,Time,22.222222222222,6572,6928,0,0,,1
M20329189AT,d6auktk38s,"Mediated JOLs",1,191,2024-11-21T00:32:47+00:00,8.1784129142761,3,versionB_stim.csv,ReadVersion.csv,Read,Read2,WEDDING,HAND,Study1,M,72,82,Test,User,-,,Recall,Recall2,8052,Affection,30.769230769231,3863,7731,0,0,,1
M20329189AT,d6auktk38s,"Mediated JOLs",1,192,2024-11-21T00:32:51+00:00,4.0418870449066,3,versionB_stim.csv,ReadVersion.csv,Read,Read2,BEACH,SQUARE,Study1,M,62,68,Test,User,-,,Recall,Recall2,3901,Prime,36.363636363636,3175,3646,0,0,,1
M20329189AT,d6auktk38s,"Mediated JOLs",1,193,2024-11-21T00:32:56+00:00,4.8510630130768,3,versionB_stim.csv,ReadVersion.csv,Read,Read2,ORCHID,FLOWER,Study1,F,89,97,Test,User,-,,Recall,Recall2,4705,Bloom,36.363636363636,2660,4209,0,0,,1
M20329189AT,d6auktk38s,"Mediated JOLs",1,194,2024-11-21T00:33:00+00:00,3.6224648952484,3,versionB_stim.csv,ReadVersion.csv,Read,Read2,BAT,JUMP,Study1,M,67,64,Test,User,-,,Recall,Recall2,3485,"Dark ",0,1818,2250,0,0,,1
M20329189AT,d6auktk38s,"Mediated JOLs",1,195,2024-11-21T00:33:06+00:00,6.3750171661377,3,versionB_stim.csv,ReadVersion.csv,Read,Read2,LION,FLAG,Study1,M,61,87,Test,User,-,,Recall,Recall2,6232,Tame,25,2702,5066,0,0,,1
M20329189AT,d6auktk38s,"Mediated JOLs",1,196,2024-11-21T00:33:23+00:00,17.232040882111,3,versionB_stim.csv,ReadVersion.csv,Read,Read2,CAKE,HAND,Study1,U,104,94,Test,User,-,,Recall,Recall2,17090,Tonight,18.181818181818,15342,16672,0,0,,1
M20329189AT,d6auktk38s,"Mediated JOLs",1,197,2024-11-21T00:33:27+00:00,3.5106680393219,3,versionB_stim.csv,ReadVersion.csv,Read,Read2,LITTER,TRASH,Study1,F,76,91,Test,User,-,,Recall,Recall2,3377,Clean,20,2144,2809,0,0,,1
M20329189AT,d6auktk38s,"Mediated JOLs",1,198,2024-11-21T00:33:31+00:00,3.921196937561,3,versionB_stim.csv,ReadVersion.csv,Read,Read2,TREE,PANCAKES,Study1,M,66,101,Test,User,-,,Recall,Recall2,3788,Plant,46.153846153846,1861,3566,0,0,,1
M20329189AT,d6auktk38s,"Mediated JOLs",1,199,2024-11-21T00:33:34+00:00,3.0577549934387,3,versionB_stim.csv,ReadVersion.csv,Read,Read2,ROUGH,WORM,Study1,M,65,90,Test,User,-,,Recall,Recall2,2929,Ride,25,2388,2763,0,0,,1
M20329189AT,d6auktk38s,"Mediated JOLs",1,200,2024-11-21T00:33:46+00:00,12.286203145981,3,versionB_stim.csv,ReadVersion.csv,Read,Read2,LISTEN,FICTION,Study1,U,99,93,Test,User,-,,Recall,Recall2,12143,,0,-1,-1,0,0,,1
M20329189AT,d6auktk38s,"Mediated JOLs",1,201,2024-11-21T00:33:50+00:00,3.9836039543152,3,versionB_stim.csv,ReadVersion.csv,Read,Read2,KEYS,ROD,Study1,U,100,63,Test,User,-,,Recall,Recall2,3845,Ring,28.571428571429,3272,3643,0,0,,1
M20329189AT,d6auktk38s,"Mediated JOLs",1,202,2024-11-21T00:33:54+00:00,4.2768189907074,3,versionB_stim.csv,ReadVersion.csv,Read,Read2,VEHICLE,CHARM,Study1,U,95,73,Test,User,-,,Recall,Recall2,4136,Motion,18.181818181818,2824,3860,0,0,,1
M20329189AT,d6auktk38s,"Mediated JOLs",1,203,2024-11-21T00:33:57+00:00,2.8724780082703,3,versionB_stim.csv,ReadVersion.csv,Read,Read2,CRACKLE,ELECTION,Study1,U,94,62,Test,User,-,,Recall,Recall2,2741,Fire,16.666666666667,2234,2536,0,0,,1
M20329189AT,d6auktk38s,"Mediated JOLs",1,204,2024-11-21T00:34:03+00:00,6.0048489570618,3,versionB_stim.csv,ReadVersion.csv,Read,Read2,FUZZY,BANG,Study1,U,105,96,Test,User,-,,Recall,Recall2,5865,Fur,0,5300,5611,0,0,,1
M20329189AT,d6auktk38s,"Mediated JOLs",1,205,2024-11-21T00:34:08+00:00,4.2291450500488,3,versionB_stim.csv,ReadVersion.csv,Read,Read2,WAR,LOUD,Study1,M,63,98,Test,User,-,,Recall,Recall2,4090,Over,25,3420,3929,0,0,,1
M20329189AT,d6auktk38s,"Mediated JOLs",1,206,2024-11-21T00:34:10+00:00,2.8117029666901,3,versionB_stim.csv,ReadVersion.csv,Read,Read2,SIP,DRINK,Study1,F,87,72,Test,User,-,,Recall,Recall2,2677,,0,-1,-1,0,0,,1
M20329189AT,d6auktk38s,"Mediated JOLs",1,207,2024-11-21T00:34:15+00:00,4.8913609981537,3,versionB_stim.csv,ReadVersion.csv,Read,Read2,BIRTHDAY,APPLE,Study1,M,64,65,Test,User,-,,Recall,Recall2,4745,Surprise,30.769230769231,1767,2388,0,0,,1
M20329189AT,d6auktk38s,"Mediated JOLs",1,208,2024-11-21T00:34:19+00:00,3.7492129802704,3,versionB_stim.csv,ReadVersion.csv,Read,Read2,HYGIENE,CLEAN,Study1,F,83,85,Test,User,-,,Recall,Recall2,3613,Clean,100,2682,3311,1,1,,1
M20329189AT,d6auktk38s,"Mediated JOLs",1,209,2024-11-21T00:34:23+00:00,4.0629560947418,3,versionB_stim.csv,ReadVersion.csv,Read,Read2,CEILING,RUG,Study1,M,70,69,Test,User,-,,Recall,Recall2,3933,Above,0,2027,3700,0,0,,1
M20329189AT,d6auktk38s,"Mediated JOLs",1,210,2024-11-21T00:34:27+00:00,4.1868748664856,3,versionB_stim.csv,ReadVersion.csv,Read,Read2,TEMPERATURE,MORNING,Study1,U,103,104,Test,User,-,,Recall,Recall2,4050,Cold,18.181818181818,2888,3794,0,0,,1
M20329189AT,d6auktk38s,"Mediated JOLs",1,211,2024-11-21T00:34:28+00:00,0.81948113441467,3,versionB_stim.csv,ReadVersion.csv,Read,Read2,,,,,,0,Instruct,User,-,"You have completed this section. Please press Enter.",,Instruct7,697,,,-1,-1,,,,1
M20329189AT,d6auktk38s,"Mediated JOLs",1,212,2024-11-21T00:34:29+00:00,1.1853909492493,3,versionB_stim.csv,ReadVersion.csv,Read,Read2,,,,,,0,Instruct,User,-,"The following screen will ask you a few questions abour your experience today. You must complete these questions to receive credit.",,Instruct8,1044,,,-1,-1,,,,1
