Username,ID,ExperimentName,Session,Trial,Date,TimeDif,"Condition Number","Stimuli File","Order File","Condition Description","Condition Notes",Stimuli*Cue,Stimuli*Answer,Stimuli*Shuffle,"Stimuli*Stimuli Notes",Stimuli*Value,Procedure*Item,"Procedure*Trial Type","Procedure*Max Time","Procedure*Min Time",Procedure*Text,"Procedure*Procedure Notes",Procedure*Shuffle,Response*RT,Response*Response,Response*Accuracy,Response*RTfirst,Response*RTlast,Response*strictAcc,Response*lenientAcc,Response*focus,Response*Focus
M20348487,zi6lgc1tl0,"Mediated JOLs",1,1,2024-12-02T06:32:53+00:00,8.8033909797668,3,versionB_stim.csv,ReadVersion.csv,Read,Read2,,,,,,0,Instruct,-,5,"In this section, you will be presented with a series of word pairs. Please study each word pair! Your memory will be tested!",Initial_Instruct,Instruct1,8699,,,-1,-1,,,,1
M20348487,zi6lgc1tl0,"Mediated JOLs",1,2,2024-12-02T06:32:57+00:00,3.6708738803864,3,versionB_stim.csv,ReadVersion.csv,Read,Read2,,,,,,0,Instruct,User,-,"You will now begin. Press Enter when you are ready to begin.",,Instruct16,3542,,,-1,-1,,,,0.611
M20348487,zi6lgc1tl0,"Mediated JOLs",1,3,2024-12-02T06:33:00+00:00,2.7439880371094,3,versionB_stim.csv,ReadVersion.csv,Read,Read2,OCTOBER,SPOOKY,BUFFER3,Buffer,5,6,Study,User,-,,Study/JOL,BUFFER,2618,,,-1,-1,,,,1
M20348487,zi6lgc1tl0,"Mediated JOLs",1,4,2024-12-02T06:33:03+00:00,2.9325830936432,3,versionB_stim.csv,ReadVersion.csv,Read,Read2,SPRING,MARCH,BUFFER3,Buffer,4,3,Study,User,-,,Study/JOL,BUFFER,2809,,,-1,-1,,,,1
M20348487,zi6lgc1tl0,"Mediated JOLs",1,5,2024-12-02T06:33:05+00:00,2.5952558517456,3,versionB_stim.csv,ReadVersion.csv,Read,Read2,MONTH,YEAR,BUFFER3,Buffer,2,4,Study,User,-,,Study/JOL,BUFFER,2467,,,-1,-1,,,,1
M20348487,zi6lgc1tl0,"Mediated JOLs",1,6,2024-12-02T06:33:09+00:00,3.5601780414581,3,versionB_stim.csv,ReadVersion.csv,Read,Read2,DAYS,WEEKS,BUFFER3,Buffer,1,2,Study,User,-,,Study/JOL,BUFFER,3427,,,-1,-1,,,,1
M20348487,zi6lgc1tl0,"Mediated JOLs",1,7,2024-12-02T06:33:11+00:00,2.6525671482086,3,versionB_stim.csv,ReadVersion.csv,Read,Read2,TOOL,SHED,BUFFER3,Buffer,3,5,Study,User,-,,Study/JOL,BUFFER,2524,,,-1,-1,,,,1
M20348487,zi6lgc1tl0,"Mediated JOLs",1,8,2024-12-02T06:33:15+00:00,3.2116978168488,3,versionB_stim.csv,ReadVersion.csv,Read,Read2,RAZOR,ARM,Study2,M,20,7,Study,User,-,,Study/JOL,"Study Phase",3088,,,-1,-1,,,,1
M20348487,zi6lgc1tl0,"Mediated JOLs",1,9,2024-12-02T06:33:18+00:00,3.2497491836548,3,versionB_stim.csv,ReadVersion.csv,Read,Read2,BLAZE,FIRE,Study2,F,26,28,Study,User,-,,Study/JOL,"Study Phase",3126,,,-1,-1,,,,1
M20348487,zi6lgc1tl0,"Mediated JOLs",1,10,2024-12-02T06:33:20+00:00,2.1569697856903,3,versionB_stim.csv,ReadVersion.csv,Read,Read2,DEATH,BUSINESS,Study2,U,44,49,Study,User,-,,Study/JOL,"Study Phase",2022,,,-1,-1,,,,1
M20348487,zi6lgc1tl0,"Mediated JOLs",1,11,2024-12-02T06:33:23+00:00,2.6491460800171,3,versionB_stim.csv,ReadVersion.csv,Read,Read2,SUGAR,RIDDLE,Study2,U,40,41,Study,User,-,,Study/JOL,"Study Phase",2520,,,-1,-1,,,,1
M20348487,zi6lgc1tl0,"Mediated JOLs",1,12,2024-12-02T06:33:25+00:00,2.4922330379486,3,versionB_stim.csv,ReadVersion.csv,Read,Read2,INCENSE,SMELL,Study2,F,28,13,Study,User,-,,Study/JOL,"Study Phase",2364,,,-1,-1,,,,1
M20348487,zi6lgc1tl0,"Mediated JOLs",1,13,2024-12-02T06:33:28+00:00,2.4938991069794,3,versionB_stim.csv,ReadVersion.csv,Read,Read2,BENCH,HORN,Study2,U,43,34,Study,User,-,,Study/JOL,"Study Phase",2360,,,-1,-1,,,,1
M20348487,zi6lgc1tl0,"Mediated JOLs",1,14,2024-12-02T06:33:30+00:00,2.1899769306183,3,versionB_stim.csv,ReadVersion.csv,Read,Read2,CHOP,CUT,Study2,F,22,40,Study,User,-,,Study/JOL,"Study Phase",2069,,,-1,-1,,,,1
M20348487,zi6lgc1tl0,"Mediated JOLs",1,15,2024-12-02T06:33:36+00:00,6.4003329277039,3,versionB_stim.csv,ReadVersion.csv,Read,Read2,WINDOW,HANDLE,Study2,M,19,36,Study,User,-,,Study/JOL,"Study Phase",6274,,,-1,-1,,,,1
M20348487,zi6lgc1tl0,"Mediated JOLs",1,16,2024-12-02T06:33:39+00:00,2.1757900714874,3,versionB_stim.csv,ReadVersion.csv,Read,Read2,HAPPY,CAR,Study2,U,37,31,Study,User,-,,Study/JOL,"Study Phase",2055,,,-1,-1,,,,1
M20348487,zi6lgc1tl0,"Mediated JOLs",1,17,2024-12-02T06:33:42+00:00,3.1599719524384,3,versionB_stim.csv,ReadVersion.csv,Read,Read2,ARTERY,BRONZE,Study2,U,48,29,Study,User,-,,Study/JOL,"Study Phase",3034,,,-1,-1,,,,1
M20348487,zi6lgc1tl0,"Mediated JOLs",1,18,2024-12-02T06:33:46+00:00,4.0295860767365,3,versionB_stim.csv,ReadVersion.csv,Read,Read2,TRAP,MAN,Study2,M,15,37,Study,User,-,,Study/JOL,"Study Phase",3895,,,-1,-1,,,,1
M20348487,zi6lgc1tl0,"Mediated JOLs",1,19,2024-12-02T06:33:52+00:00,5.8956940174103,3,versionB_stim.csv,ReadVersion.csv,Read,Read2,SUMMER,WHITE,Study2,M,6,39,Study,User,-,,Study/JOL,"Study Phase",5770,,,-1,-1,,,,1
M20348487,zi6lgc1tl0,"Mediated JOLs",1,20,2024-12-02T06:34:01+00:00,9.350977897644,3,versionB_stim.csv,ReadVersion.csv,Read,Read2,ART,WOLF,Study2,U,38,11,Study,User,-,,Study/JOL,"Study Phase",9233,,,-1,-1,,,,1
M20348487,zi6lgc1tl0,"Mediated JOLs",1,21,2024-12-02T06:34:11+00:00,9.9121780395508,3,versionB_stim.csv,ReadVersion.csv,Read,Read2,LEASE,TOIL,Study2,U,46,30,Study,User,-,,Study/JOL,"Study Phase",9779,,,-1,-1,,,,1
M20348487,zi6lgc1tl0,"Mediated JOLs",1,22,2024-12-02T06:34:15+00:00,4.1745409965515,3,versionB_stim.csv,ReadVersion.csv,Read,Read2,HEAVY,BIRD,Study2,M,13,27,Study,User,-,,Study/JOL,"Study Phase",4045,,,-1,-1,,,,1
M20348487,zi6lgc1tl0,"Mediated JOLs",1,23,2024-12-02T06:34:29+00:00,13.541635990143,3,versionB_stim.csv,ReadVersion.csv,Read,Read2,REALITY,WATER,Study2,M,9,23,Study,User,-,,Study/JOL,"Study Phase",13410,,,-1,-1,,,,1
M20348487,zi6lgc1tl0,"Mediated JOLs",1,24,2024-12-02T06:34:37+00:00,8.7525899410248,3,versionB_stim.csv,ReadVersion.csv,Read,Read2,KING,VASE,Study2,U,36,51,Study,User,-,,Study/JOL,"Study Phase",8630,,,-1,-1,,,,1
M20348487,zi6lgc1tl0,"Mediated JOLs",1,25,2024-12-02T06:34:43+00:00,5.3632569313049,3,versionB_stim.csv,ReadVersion.csv,Read,Read2,GRILL,LEG,Study2,M,17,16,Study,User,-,,Study/JOL,"Study Phase",5232,,,-1,-1,,,,1
M20348487,zi6lgc1tl0,"Mediated JOLs",1,26,2024-12-02T06:34:52+00:00,9.2056720256805,3,versionB_stim.csv,ReadVersion.csv,Read,Read2,CHILL,COLD,Study2,F,32,33,Study,User,-,,Study/JOL,"Study Phase",9078,,,-1,-1,,,,1
M20348487,zi6lgc1tl0,"Mediated JOLs",1,27,2024-12-02T06:34:55+00:00,3.0025460720062,3,versionB_stim.csv,ReadVersion.csv,Read,Read2,CHERRY,RED,Study2,F,25,48,Study,User,-,,Study/JOL,"Study Phase",2874,,,-1,-1,,,,1
M20348487,zi6lgc1tl0,"Mediated JOLs",1,28,2024-12-02T06:35:00+00:00,4.7959170341492,3,versionB_stim.csv,ReadVersion.csv,Read,Read2,PANTS,DOG,Study2,M,8,10,Study,User,-,,Study/JOL,"Study Phase",4673,,,-1,-1,,,,1
M20348487,zi6lgc1tl0,"Mediated JOLs",1,29,2024-12-02T06:35:06+00:00,6.1219089031219,3,versionB_stim.csv,ReadVersion.csv,Read,Read2,BRIDGE,WATER,Study2,F,35,24,Study,User,-,,Study/JOL,"Study Phase",5999,,,-1,-1,,,,1
M20348487,zi6lgc1tl0,"Mediated JOLs",1,30,2024-12-02T06:35:15+00:00,8.7067091464996,3,versionB_stim.csv,ReadVersion.csv,Read,Read2,OVEN,WEAVE,Study2,M,16,22,Study,User,-,,Study/JOL,"Study Phase",8577,,,-1,-1,,,,1
M20348487,zi6lgc1tl0,"Mediated JOLs",1,31,2024-12-02T06:35:16+00:00,1.505628824234,3,versionB_stim.csv,ReadVersion.csv,Read,Read2,PUSH,CLUTTER,Study2,U,41,32,Study,User,-,,Study/JOL,"Study Phase",1375,,,-1,-1,,,,1
M20348487,zi6lgc1tl0,"Mediated JOLs",1,32,2024-12-02T06:35:23+00:00,7.3079390525818,3,versionB_stim.csv,ReadVersion.csv,Read,Read2,CASH,LEG,Study2,U,50,46,Study,User,-,,Study/JOL,"Study Phase",7180,,,-1,-1,,,,1
M20348487,zi6lgc1tl0,"Mediated JOLs",1,33,2024-12-02T06:35:30+00:00,6.7167069911957,3,versionB_stim.csv,ReadVersion.csv,Read,Read2,STRONG,ACCIDENT,Study2,U,39,17,Study,User,-,,Study/JOL,"Study Phase",6596,,,-1,-1,,,,1
M20348487,zi6lgc1tl0,"Mediated JOLs",1,34,2024-12-02T06:35:33+00:00,2.4983770847321,3,versionB_stim.csv,ReadVersion.csv,Read,Read2,EYES,TASTE,Study2,M,10,9,Study,User,-,,Study/JOL,"Study Phase",2368,,,-1,-1,,,,1
M20348487,zi6lgc1tl0,"Mediated JOLs",1,35,2024-12-02T06:35:34+00:00,1.611396074295,3,versionB_stim.csv,ReadVersion.csv,Read,Read2,WASP,BUG,Study2,F,34,18,Study,User,-,,Study/JOL,"Study Phase",1488,,,-1,-1,,,,1
M20348487,zi6lgc1tl0,"Mediated JOLs",1,36,2024-12-02T06:35:36+00:00,1.9473278522491,3,versionB_stim.csv,ReadVersion.csv,Read,Read2,BOTH,OUNCE,Study2,U,47,8,Study,User,-,,Study/JOL,"Study Phase",1814,,,-1,-1,,,,1
M20348487,zi6lgc1tl0,"Mediated JOLs",1,37,2024-12-02T06:35:39+00:00,2.4126319885254,3,versionB_stim.csv,ReadVersion.csv,Read,Read2,SICK,HIDE,Study2,U,45,25,Study,User,-,,Study/JOL,"Study Phase",2288,,,-1,-1,,,,1
M20348487,zi6lgc1tl0,"Mediated JOLs",1,38,2024-12-02T06:35:40+00:00,1.4679319858551,3,versionB_stim.csv,ReadVersion.csv,Read,Read2,CACTUS,PLANT,Study2,F,21,45,Study,User,-,,Study/JOL,"Study Phase",1335,,,-1,-1,,,,1
M20348487,zi6lgc1tl0,"Mediated JOLs",1,39,2024-12-02T06:35:43+00:00,3.1083881855011,3,versionB_stim.csv,ReadVersion.csv,Read,Read2,DIETARY,SACK,Study2,U,42,44,Study,User,-,,Study/JOL,"Study Phase",2983,,,-1,-1,,,,1
M20348487,zi6lgc1tl0,"Mediated JOLs",1,40,2024-12-02T06:35:45+00:00,1.5994589328766,3,versionB_stim.csv,ReadVersion.csv,Read,Read2,ATTIRE,CLOTHES,Study2,F,24,12,Study,User,-,,Study/JOL,"Study Phase",1471,,,-1,-1,,,,1
M20348487,zi6lgc1tl0,"Mediated JOLs",1,41,2024-12-02T06:35:47+00:00,2.689285993576,3,versionB_stim.csv,ReadVersion.csv,Read,Read2,FEUD,FIGHT,Study2,F,31,35,Study,User,-,,Study/JOL,"Study Phase",2554,,,-1,-1,,,,1
M20348487,zi6lgc1tl0,"Mediated JOLs",1,42,2024-12-02T06:35:50+00:00,2.4400410652161,3,versionB_stim.csv,ReadVersion.csv,Read,Read2,VALLEY,TOP,Study2,M,18,15,Study,User,-,,Study/JOL,"Study Phase",2308,,,-1,-1,,,,1
M20348487,zi6lgc1tl0,"Mediated JOLs",1,43,2024-12-02T06:35:53+00:00,2.7558488845825,3,versionB_stim.csv,ReadVersion.csv,Read,Read2,HERD,COW,Study2,F,33,21,Study,User,-,,Study/JOL,"Study Phase",2624,,,-1,-1,,,,1
M20348487,zi6lgc1tl0,"Mediated JOLs",1,44,2024-12-02T06:35:55+00:00,2.7313690185547,3,versionB_stim.csv,ReadVersion.csv,Read,Read2,LEAGUE,BASEBALL,Study2,F,29,47,Study,User,-,,Study/JOL,"Study Phase",2604,,,-1,-1,,,,1
M20348487,zi6lgc1tl0,"Mediated JOLs",1,45,2024-12-02T06:36:12+00:00,16.495866060257,3,versionB_stim.csv,ReadVersion.csv,Read,Read2,SOAP,THIRST,Study2,M,12,43,Study,User,-,,Study/JOL,"Study Phase",16369,,,-1,-1,,,,1
M20348487,zi6lgc1tl0,"Mediated JOLs",1,46,2024-12-02T06:36:14+00:00,1.9567580223083,3,versionB_stim.csv,ReadVersion.csv,Read,Read2,DOCUMENT,PAPER,Study2,F,27,14,Study,User,-,,Study/JOL,"Study Phase",1824,,,-1,-1,,,,1
M20348487,zi6lgc1tl0,"Mediated JOLs",1,47,2024-12-02T06:36:15+00:00,1.4793210029602,3,versionB_stim.csv,ReadVersion.csv,Read,Read2,NURSE,COURT,Study2,M,11,42,Study,User,-,,Study/JOL,"Study Phase",1357,,,-1,-1,,,,1
M20348487,zi6lgc1tl0,"Mediated JOLs",1,48,2024-12-02T06:36:23+00:00,8.1076488494873,3,versionB_stim.csv,ReadVersion.csv,Read,Read2,RAKE,PLANT,Study2,M,14,19,Study,User,-,,Study/JOL,"Study Phase",7982,,,-1,-1,,,,1
M20348487,zi6lgc1tl0,"Mediated JOLs",1,49,2024-12-02T06:36:25+00:00,1.8984251022339,3,versionB_stim.csv,ReadVersion.csv,Read,Read2,CHISEL,HAMMER,Study2,F,23,26,Study,User,-,,Study/JOL,"Study Phase",1776,,,-1,-1,,,,1
M20348487,zi6lgc1tl0,"Mediated JOLs",1,50,2024-12-02T06:36:37+00:00,12.094009876251,3,versionB_stim.csv,ReadVersion.csv,Read,Read2,MIRROR,CHILDREN,Study2,U,49,38,Study,User,-,,Study/JOL,"Study Phase",11965,,,-1,-1,,,,1
M20348487,zi6lgc1tl0,"Mediated JOLs",1,51,2024-12-02T06:36:39+00:00,1.6079909801483,3,versionB_stim.csv,ReadVersion.csv,Read,Read2,SCHOOL,SIGN,Study2,M,7,50,Study,User,-,,Study/JOL,"Study Phase",1475,,,-1,-1,,,,1
M20348487,zi6lgc1tl0,"Mediated JOLs",1,52,2024-12-02T06:36:40+00:00,1.516547203064,3,versionB_stim.csv,ReadVersion.csv,Read,Read2,HORNET,STING,Study2,F,30,20,Study,User,-,,Study/JOL,"Study Phase",1389,,,-1,-1,,,,1
M20348487,zi6lgc1tl0,"Mediated JOLs",1,53,2024-12-02T06:36:43+00:00,2.9678068161011,3,versionB_stim.csv,ReadVersion.csv,Read,Read2,MALT,CHOCOLATE,BUFFER2,Buffer,108,108,Study,User,-,,Study/JOL,BUFFER2,2844,,,-1,-1,,,,1
M20348487,zi6lgc1tl0,"Mediated JOLs",1,54,2024-12-02T06:36:45+00:00,1.4154040813446,3,versionB_stim.csv,ReadVersion.csv,Read,Read2,SHERRIF,POLICE,BUFFER2,Buffer,107,107,Study,User,-,,Study/JOL,BUFFER2,1286,,,-1,-1,,,,1
M20348487,zi6lgc1tl0,"Mediated JOLs",1,55,2024-12-02T06:36:47+00:00,1.772980928421,3,versionB_stim.csv,ReadVersion.csv,Read,Read2,SCARE,FRIGHT,BUFFER1,Buffer,59,59,Study,User,-,,Study/JOL,BUFFER2,1641,,,-1,-1,,,,1
M20348487,zi6lgc1tl0,"Mediated JOLs",1,56,2024-12-02T06:36:48+00:00,1.2273290157318,3,versionB_stim.csv,ReadVersion.csv,Read,Read2,CARROT,POTATO,BUFFER4,Buffer,51,54,Study,User,-,,Study/JOL,BUFFER2,1101,,,-1,-1,,,,1
M20348487,zi6lgc1tl0,"Mediated JOLs",1,57,2024-12-02T06:36:51+00:00,3.2514190673828,3,versionB_stim.csv,ReadVersion.csv,Read,Read2,NOODLE,STRING,BUFFER4,Buffer,52,56,Study,User,-,,Study/JOL,BUFFER2,3125,,,-1,-1,,,,1
M20348487,zi6lgc1tl0,"Mediated JOLs",1,58,2024-12-02T06:36:53+00:00,1.608815908432,3,versionB_stim.csv,ReadVersion.csv,Read,Read2,,,,,,0,Instruct,User,-,"You have completed this section. Please press Enter.",Filler_Instruction,Instruct2,1478,,,-1,-1,,,,1
M20348487,zi6lgc1tl0,"Mediated JOLs",1,59,2024-12-02T06:38:53+00:00,120.2207660675,3,versionB_stim.csv,ReadVersion.csv,Read,Read2,,,,,,0,FreeRecall,120,120,"Please list the 50 US states in alphabetical order. The task will automatically advance to the next screen after two minutes.",,Filler1,120001,"Alabama Alaska Arizona Arkansas California Connecticut Delaware Denver Floridia Georgia Indiana Iowa Illinois ",0,4565,103849,0,0,,0.985
M20348487,zi6lgc1tl0,"Mediated JOLs",1,60,2024-12-02T06:39:06+00:00,12.935135126114,3,versionB_stim.csv,ReadVersion.csv,Read,Read2,,,,,,0,Instruct,-,10,"You will now be presented with the first word from each of the previously studied item pairs. Please type the missing word. If you do not know the word, you may guess or press Enter to skip forward to the next pair.",,Instruct3,12787,,,-1,-1,,,,1
M20348487,zi6lgc1tl0,"Mediated JOLs",1,61,2024-12-02T06:39:08+00:00,2.5238409042358,3,versionB_stim.csv,ReadVersion.csv,Read,Read2,HERD,COW,Study2,F,33,21,Test,User,-,,Recall,Recall1,2388,,0,-1,-1,0,0,,1
M20348487,zi6lgc1tl0,"Mediated JOLs",1,62,2024-12-02T06:39:14+00:00,5.2684888839722,3,versionB_stim.csv,ReadVersion.csv,Read,Read2,CHILL,COLD,Study2,F,32,33,Test,User,-,,Recall,Recall1,5114,Cold,100,3946,4642,1,1,,1
M20348487,zi6lgc1tl0,"Mediated JOLs",1,63,2024-12-02T06:39:18+00:00,3.9636600017548,3,versionB_stim.csv,ReadVersion.csv,Read,Read2,SUGAR,RIDDLE,Study2,U,40,41,Test,User,-,,Recall,Recall1,3831,Riddle,100,2107,3256,1,1,,1
M20348487,zi6lgc1tl0,"Mediated JOLs",1,64,2024-12-02T06:39:43+00:00,25.73889708519,3,versionB_stim.csv,ReadVersion.csv,Read,Read2,SUMMER,WHITE,Study2,M,6,39,Test,User,-,,Recall,Recall1,25598,,0,-1,-1,0,0,,0.953
M20348487,zi6lgc1tl0,"Mediated JOLs",1,65,2024-12-02T06:39:46+00:00,2.7493739128113,3,versionB_stim.csv,ReadVersion.csv,Read,Read2,CHOP,CUT,Study2,F,22,40,Test,User,-,,Recall,Recall1,2602,Cut,100,1694,2396,1,1,,1
M20348487,zi6lgc1tl0,"Mediated JOLs",1,66,2024-12-02T06:39:57+00:00,10.984045028687,3,versionB_stim.csv,ReadVersion.csv,Read,Read2,CHISEL,HAMMER,Study2,F,23,26,Test,User,-,,Recall,Recall1,10833,Brick,18.181818181818,8702,10468,0,0,,1
M20348487,zi6lgc1tl0,"Mediated JOLs",1,67,2024-12-02T06:40:00+00:00,3.081659078598,3,versionB_stim.csv,ReadVersion.csv,Read,Read2,SICK,HIDE,Study2,U,45,25,Test,User,-,,Recall,Recall1,2905,,0,-1,-1,0,0,,1
M20348487,zi6lgc1tl0,"Mediated JOLs",1,68,2024-12-02T06:40:03+00:00,3.1905369758606,3,versionB_stim.csv,ReadVersion.csv,Read,Read2,ARTERY,BRONZE,Study2,U,48,29,Test,User,-,,Recall,Recall1,3055,,0,-1,-1,0,0,,1
M20348487,zi6lgc1tl0,"Mediated JOLs",1,69,2024-12-02T06:40:09+00:00,5.6519050598145,3,versionB_stim.csv,ReadVersion.csv,Read,Read2,FEUD,FIGHT,Study2,F,31,35,Test,User,-,,Recall,Recall1,5516,Fight,100,3462,4951,1,1,,1
M20348487,zi6lgc1tl0,"Mediated JOLs",1,70,2024-12-02T06:40:12+00:00,3.4400939941406,3,versionB_stim.csv,ReadVersion.csv,Read,Read2,BLAZE,FIRE,Study2,F,26,28,Test,User,-,,Recall,Recall1,3299,Fire,100,1986,2918,1,1,,1
M20348487,zi6lgc1tl0,"Mediated JOLs",1,71,2024-12-02T06:40:17+00:00,4.9901189804077,3,versionB_stim.csv,ReadVersion.csv,Read,Read2,LEASE,TOIL,Study2,U,46,30,Test,User,-,,Recall,Recall1,4860,,0,-1,-1,0,0,,1
M20348487,zi6lgc1tl0,"Mediated JOLs",1,72,2024-12-02T06:40:32+00:00,14.898217916489,3,versionB_stim.csv,ReadVersion.csv,Read,Read2,CASH,LEG,Study2,U,50,46,Test,User,-,,Recall,Recall1,14752,Credit,22.222222222222,10545,13767,0,0,,1
M20348487,zi6lgc1tl0,"Mediated JOLs",1,73,2024-12-02T06:40:37+00:00,5.0140311717987,3,versionB_stim.csv,ReadVersion.csv,Read,Read2,WINDOW,HANDLE,Study2,M,19,36,Test,User,-,,Recall,Recall1,4865,,0,-1,-1,0,0,,1
M20348487,zi6lgc1tl0,"Mediated JOLs",1,74,2024-12-02T06:40:42+00:00,4.4020090103149,3,versionB_stim.csv,ReadVersion.csv,Read,Read2,BRIDGE,WATER,Study2,F,35,24,Test,User,-,,Recall,Recall1,4268,Water,100,1716,2732,1,1,,1
M20348487,zi6lgc1tl0,"Mediated JOLs",1,75,2024-12-02T06:40:47+00:00,5.0854017734528,3,versionB_stim.csv,ReadVersion.csv,Read,Read2,CACTUS,PLANT,Study2,F,21,45,Test,User,-,,Recall,Recall1,4955,Thorn,20,1789,4551,0,0,,1
M20348487,zi6lgc1tl0,"Mediated JOLs",1,76,2024-12-02T06:40:52+00:00,4.7083511352539,3,versionB_stim.csv,ReadVersion.csv,Read,Read2,HORNET,STING,Study2,F,30,20,Test,User,-,,Recall,Recall1,4568,,0,-1,-1,0,0,,1
M20348487,zi6lgc1tl0,"Mediated JOLs",1,77,2024-12-02T06:40:57+00:00,5.1141278743744,3,versionB_stim.csv,ReadVersion.csv,Read,Read2,OVEN,WEAVE,Study2,M,16,22,Test,User,-,,Recall,Recall1,4987,Weave,100,2709,4408,1,1,,1
M20348487,zi6lgc1tl0,"Mediated JOLs",1,78,2024-12-02T06:40:59+00:00,2.5599281787872,3,versionB_stim.csv,ReadVersion.csv,Read,Read2,BENCH,HORN,Study2,U,43,34,Test,User,-,,Recall,Recall1,2413,,0,-1,-1,0,0,,1
M20348487,zi6lgc1tl0,"Mediated JOLs",1,79,2024-12-02T06:41:01+00:00,2.0959980487823,3,versionB_stim.csv,ReadVersion.csv,Read,Read2,DOCUMENT,PAPER,Study2,F,27,14,Test,User,-,,Recall,Recall1,1965,,0,-1,-1,0,0,,1
M20348487,zi6lgc1tl0,"Mediated JOLs",1,80,2024-12-02T06:41:04+00:00,2.8839747905731,3,versionB_stim.csv,ReadVersion.csv,Read,Read2,CHERRY,RED,Study2,F,25,48,Test,User,-,,Recall,Recall1,2751,Red,100,1450,2352,1,1,,1
M20348487,zi6lgc1tl0,"Mediated JOLs",1,81,2024-12-02T06:41:08+00:00,3.7923111915588,3,versionB_stim.csv,ReadVersion.csv,Read,Read2,ART,WOLF,Study2,U,38,11,Test,User,-,,Recall,Recall1,3656,Wolf,100,2704,3485,1,1,,1
M20348487,zi6lgc1tl0,"Mediated JOLs",1,82,2024-12-02T06:41:10+00:00,1.7533159255981,3,versionB_stim.csv,ReadVersion.csv,Read,Read2,MIRROR,CHILDREN,Study2,U,49,38,Test,User,-,,Recall,Recall1,1622,,0,-1,-1,0,0,,1
M20348487,zi6lgc1tl0,"Mediated JOLs",1,83,2024-12-02T06:41:13+00:00,3.0081369876862,3,versionB_stim.csv,ReadVersion.csv,Read,Read2,INCENSE,SMELL,Study2,F,28,13,Test,User,-,,Recall,Recall1,2879,Smell,100,1754,2615,1,1,,1
M20348487,zi6lgc1tl0,"Mediated JOLs",1,84,2024-12-02T06:41:22+00:00,9.3320798873901,3,versionB_stim.csv,ReadVersion.csv,Read,Read2,HAPPY,CAR,Study2,U,37,31,Test,User,-,,Recall,Recall1,9201,,0,-1,-1,0,0,,1
M20348487,zi6lgc1tl0,"Mediated JOLs",1,85,2024-12-02T06:41:39+00:00,16.595209121704,3,versionB_stim.csv,ReadVersion.csv,Read,Read2,PANTS,DOG,Study2,M,8,10,Test,User,-,,Recall,Recall1,16463,,0,-1,-1,0,0,,1
M20348487,zi6lgc1tl0,"Mediated JOLs",1,86,2024-12-02T06:41:42+00:00,3.7093739509583,3,versionB_stim.csv,ReadVersion.csv,Read,Read2,NURSE,COURT,Study2,M,11,42,Test,User,-,,Recall,Recall1,3561,,0,-1,-1,0,0,,1
M20348487,zi6lgc1tl0,"Mediated JOLs",1,87,2024-12-02T06:41:44+00:00,1.7118129730225,3,versionB_stim.csv,ReadVersion.csv,Read,Read2,BOTH,OUNCE,Study2,U,47,8,Test,User,-,,Recall,Recall1,1570,,0,-1,-1,0,0,,1
M20348487,zi6lgc1tl0,"Mediated JOLs",1,88,2024-12-02T06:41:55+00:00,10.898163080215,3,versionB_stim.csv,ReadVersion.csv,Read,Read2,KING,VASE,Study2,U,36,51,Test,User,-,,Recall,Recall1,10757,Crown,0,5046,10065,0,0,,1
M20348487,zi6lgc1tl0,"Mediated JOLs",1,89,2024-12-02T06:41:59+00:00,3.5132958889008,3,versionB_stim.csv,ReadVersion.csv,Read,Read2,GRILL,LEG,Study2,M,17,16,Test,User,-,,Recall,Recall1,3382,Leg,100,1468,2540,1,1,,1
M20348487,zi6lgc1tl0,"Mediated JOLs",1,90,2024-12-02T06:42:01+00:00,2.372673034668,3,versionB_stim.csv,ReadVersion.csv,Read,Read2,SOAP,THIRST,Study2,M,12,43,Test,User,-,,Recall,Recall1,2236,,0,-1,-1,0,0,,1
M20348487,zi6lgc1tl0,"Mediated JOLs",1,91,2024-12-02T06:42:20+00:00,19.572759151459,3,versionB_stim.csv,ReadVersion.csv,Read,Read2,STRONG,ACCIDENT,Study2,U,39,17,Test,User,-,,Recall,Recall1,19428,,0,-1,-1,0,0,,1
M20348487,zi6lgc1tl0,"Mediated JOLs",1,92,2024-12-02T06:42:24+00:00,3.1061408519745,3,versionB_stim.csv,ReadVersion.csv,Read,Read2,REALITY,WATER,Study2,M,9,23,Test,User,-,,Recall,Recall1,2966,Water,100,1809,2723,1,1,,1
M20348487,zi6lgc1tl0,"Mediated JOLs",1,93,2024-12-02T06:42:25+00:00,1.9090349674225,3,versionB_stim.csv,ReadVersion.csv,Read,Read2,RAKE,PLANT,Study2,M,14,19,Test,User,-,,Recall,Recall1,1764,,0,-1,-1,0,0,,1
M20348487,zi6lgc1tl0,"Mediated JOLs",1,94,2024-12-02T06:42:27+00:00,1.6961560249329,3,versionB_stim.csv,ReadVersion.csv,Read,Read2,DIETARY,SACK,Study2,U,42,44,Test,User,-,,Recall,Recall1,1553,,0,-1,-1,0,0,,1
M20348487,zi6lgc1tl0,"Mediated JOLs",1,95,2024-12-02T06:42:29+00:00,2.2663750648499,3,versionB_stim.csv,ReadVersion.csv,Read,Read2,SCHOOL,SIGN,Study2,M,7,50,Test,User,-,,Recall,Recall1,2119,,0,-1,-1,0,0,,1
M20348487,zi6lgc1tl0,"Mediated JOLs",1,96,2024-12-02T06:42:32+00:00,3.0006520748138,3,versionB_stim.csv,ReadVersion.csv,Read,Read2,EYES,TASTE,Study2,M,10,9,Test,User,-,,Recall,Recall1,2869,Taste,100,1651,2685,1,1,,1
M20348487,zi6lgc1tl0,"Mediated JOLs",1,97,2024-12-02T06:42:36+00:00,3.5312438011169,3,versionB_stim.csv,ReadVersion.csv,Read,Read2,VALLEY,TOP,Study2,M,18,15,Test,User,-,,Recall,Recall1,3395,,0,2174,2174,0,0,,1
M20348487,zi6lgc1tl0,"Mediated JOLs",1,98,2024-12-02T06:42:39+00:00,2.868809223175,3,versionB_stim.csv,ReadVersion.csv,Read,Read2,TRAP,MAN,Study2,M,15,37,Test,User,-,,Recall,Recall1,2739,Men,66.666666666667,2029,2447,0,0,,1
M20348487,zi6lgc1tl0,"Mediated JOLs",1,99,2024-12-02T06:42:45+00:00,6.2452168464661,3,versionB_stim.csv,ReadVersion.csv,Read,Read2,HEAVY,BIRD,Study2,M,13,27,Test,User,-,,Recall,Recall1,6115,Bird,100,5166,5941,1,1,,1
M20348487,zi6lgc1tl0,"Mediated JOLs",1,100,2024-12-02T06:42:54+00:00,8.5795681476593,3,versionB_stim.csv,ReadVersion.csv,Read,Read2,ATTIRE,CLOTHES,Study2,F,24,12,Test,User,-,,Recall,Recall1,8440,Clothes,100,4669,8189,1,1,,1
M20348487,zi6lgc1tl0,"Mediated JOLs",1,101,2024-12-02T06:42:57+00:00,3.2429239749908,3,versionB_stim.csv,ReadVersion.csv,Read,Read2,LEAGUE,BASEBALL,Study2,F,29,47,Test,User,-,,Recall,Recall1,3090,,0,-1,-1,0,0,,1
M20348487,zi6lgc1tl0,"Mediated JOLs",1,102,2024-12-02T06:43:01+00:00,4.0595648288727,3,versionB_stim.csv,ReadVersion.csv,Read,Read2,DEATH,BUSINESS,Study2,U,44,49,Test,User,-,,Recall,Recall1,3923,,0,-1,-1,0,0,,1
M20348487,zi6lgc1tl0,"Mediated JOLs",1,103,2024-12-02T06:43:08+00:00,6.8015480041504,3,versionB_stim.csv,ReadVersion.csv,Read,Read2,PUSH,CLUTTER,Study2,U,41,32,Test,User,-,,Recall,Recall1,6666,Pull,18.181818181818,5489,6371,0,0,,1
M20348487,zi6lgc1tl0,"Mediated JOLs",1,104,2024-12-02T06:43:17+00:00,9.1058351993561,3,versionB_stim.csv,ReadVersion.csv,Read,Read2,RAZOR,ARM,Study2,M,20,7,Test,User,-,,Recall,Recall1,8965,Sharp,50,6976,8669,0,0,,1
M20348487,zi6lgc1tl0,"Mediated JOLs",1,105,2024-12-02T06:43:20+00:00,3.2108058929443,3,versionB_stim.csv,ReadVersion.csv,Read,Read2,WASP,BUG,Study2,F,34,18,Test,User,-,,Recall,Recall1,3068,Bug,100,1581,2899,1,1,,1
M20348487,zi6lgc1tl0,"Mediated JOLs",1,106,2024-12-02T06:43:31+00:00,11.079761981964,3,versionB_stim.csv,ReadVersion.csv,Read,Read2,,,,,,0,Instruct,-,10,"You will now be presented with a new set of word pairs. Please study each pair. Remember that your memory will be tested! When finished, press Enter to move to the next pair.",Initial_Instruct,Instruct4,10944,,,-1,-1,,,,1
M20348487,zi6lgc1tl0,"Mediated JOLs",1,107,2024-12-02T06:49:16+00:00,344.49352312088,3,versionB_stim.csv,ReadVersion.csv,Read,Read2,,,,,,0,Instruct,User,-,"Press Enter when you are readty to begin",,Instruct11,344299,,,-1,-1,,,,0.011
M20348487,zi6lgc1tl0,"Mediated JOLs",1,108,2024-12-02T06:49:18+00:00,2.3071448802948,3,versionB_stim.csv,ReadVersion.csv,Read,Read2,CAMP,ADVENTURE,BUFFER4,Buffer,55,52,Study,User,-,,Study/JOL,BUFFER2,2171,,,-1,-1,,,,0.636
M20348487,zi6lgc1tl0,"Mediated JOLs",1,109,2024-12-02T06:49:19+00:00,1.3003649711609,3,versionB_stim.csv,ReadVersion.csv,Read,Read2,MOON,SPACE,BUFFER2,Buffer,109,111,Study,User,-,,Study/JOL,BUFFER2,1160,,,-1,-1,,,,1
M20348487,zi6lgc1tl0,"Mediated JOLs",1,110,2024-12-02T06:49:21+00:00,1.2302379608154,3,versionB_stim.csv,ReadVersion.csv,Read,Read2,PITCHER,CATCHER,BUFFER1,Buffer,57,58,Study,User,-,,Study/JOL,BUFFER2,1094,,,-1,-1,,,,1
M20348487,zi6lgc1tl0,"Mediated JOLs",1,111,2024-12-02T06:49:22+00:00,1.4043691158295,3,versionB_stim.csv,ReadVersion.csv,Read,Read2,GEESE,GOOSE,BUFFER2,Buffer,106,109,Study,User,-,,Study/JOL,BUFFER2,1276,,,-1,-1,,,,1
M20348487,zi6lgc1tl0,"Mediated JOLs",1,112,2024-12-02T06:49:23+00:00,0.91252899169922,3,versionB_stim.csv,ReadVersion.csv,Read,Read2,ICE,FROZEN,BUFFER4,Buffer,54,53,Study,User,-,,Study/JOL,BUFFER2,783,,,-1,-1,,,,1
M20348487,zi6lgc1tl0,"Mediated JOLs",1,113,2024-12-02T06:49:24+00:00,1.0583479404449,3,versionB_stim.csv,ReadVersion.csv,Read,Read2,CIRCLE,FUN,Study1,M,68,91,Study,User,-,,Study/JOL,"Study Phase2",931,,,-1,-1,,,,1
M20348487,zi6lgc1tl0,"Mediated JOLs",1,114,2024-12-02T06:49:26+00:00,1.9731800556183,3,versionB_stim.csv,ReadVersion.csv,Read,Read2,BAT,JUMP,Study1,M,67,63,Study,User,-,,Study/JOL,"Study Phase2",1843,,,-1,-1,,,,1
M20348487,zi6lgc1tl0,"Mediated JOLs",1,115,2024-12-02T06:49:28+00:00,1.9311099052429,3,versionB_stim.csv,ReadVersion.csv,Read,Read2,SCALP,HEAD,Study1,F,78,90,Study,User,-,,Study/JOL,"Study Phase2",1805,,,-1,-1,,,,1
M20348487,zi6lgc1tl0,"Mediated JOLs",1,116,2024-12-02T06:49:29+00:00,1.0167021751404,3,versionB_stim.csv,ReadVersion.csv,Read,Read2,CREDIT,CARD,Study1,F,88,97,Study,User,-,,Study/JOL,"Study Phase2",894,,,-1,-1,,,,1
M20348487,zi6lgc1tl0,"Mediated JOLs",1,117,2024-12-02T06:49:30+00:00,1.1590008735657,3,versionB_stim.csv,ReadVersion.csv,Read,Read2,WAR,LOUD,Study1,M,63,66,Study,User,-,,Study/JOL,"Study Phase2",1026,,,-1,-1,,,,1
M20348487,zi6lgc1tl0,"Mediated JOLs",1,118,2024-12-02T06:49:31+00:00,0.96877312660217,3,versionB_stim.csv,ReadVersion.csv,Read,Read2,SWAN,BIRD,Study1,F,81,80,Study,User,-,,Study/JOL,"Study Phase2",838,,,-1,-1,,,,1
M20348487,zi6lgc1tl0,"Mediated JOLs",1,119,2024-12-02T06:49:32+00:00,1.0172989368439,3,versionB_stim.csv,ReadVersion.csv,Read,Read2,MULE,DONKEY,Study1,F,79,78,Study,User,-,,Study/JOL,"Study Phase2",884,,,-1,-1,,,,1
M20348487,zi6lgc1tl0,"Mediated JOLs",1,120,2024-12-02T06:49:33+00:00,1.0300359725952,3,versionB_stim.csv,ReadVersion.csv,Read,Read2,ROOT,PLANT,Study1,F,80,82,Study,User,-,,Study/JOL,"Study Phase2",909,,,-1,-1,,,,1
M20348487,zi6lgc1tl0,"Mediated JOLs",1,121,2024-12-02T06:49:34+00:00,1.2762398719788,3,versionB_stim.csv,ReadVersion.csv,Read,Read2,HARD,BALL,Study1,M,75,98,Study,User,-,,Study/JOL,"Study Phase2",1153,,,-1,-1,,,,1
M20348487,zi6lgc1tl0,"Mediated JOLs",1,122,2024-12-02T06:49:36+00:00,1.8240370750427,3,versionB_stim.csv,ReadVersion.csv,Read,Read2,CRACKLE,ELECTION,Study1,U,94,86,Study,User,-,,Study/JOL,"Study Phase2",1678,,,-1,-1,,,,1
M20348487,zi6lgc1tl0,"Mediated JOLs",1,123,2024-12-02T06:49:38+00:00,2.0004291534424,3,versionB_stim.csv,ReadVersion.csv,Read,Read2,CEILING,RUG,Study1,M,70,95,Study,User,-,,Study/JOL,"Study Phase2",1876,,,-1,-1,,,,1
M20348487,zi6lgc1tl0,"Mediated JOLs",1,124,2024-12-02T06:49:41+00:00,2.6796607971191,3,versionB_stim.csv,ReadVersion.csv,Read,Read2,BIRTHDAY,APPLE,Study1,M,64,75,Study,User,-,,Study/JOL,"Study Phase2",2548,,,-1,-1,,,,1
M20348487,zi6lgc1tl0,"Mediated JOLs",1,125,2024-12-02T06:49:43+00:00,2.1635870933533,3,versionB_stim.csv,ReadVersion.csv,Read,Read2,CRY,BEER,Study1,M,71,93,Study,User,-,,Study/JOL,"Study Phase2",2035,,,-1,-1,,,,1
M20348487,zi6lgc1tl0,"Mediated JOLs",1,126,2024-12-02T06:49:45+00:00,2.3923978805542,3,versionB_stim.csv,ReadVersion.csv,Read,Read2,LISTEN,FICTION,Study1,U,99,89,Study,User,-,,Study/JOL,"Study Phase2",2264,,,-1,-1,,,,1
M20348487,zi6lgc1tl0,"Mediated JOLs",1,127,2024-12-02T06:49:47+00:00,1.3280291557312,3,versionB_stim.csv,ReadVersion.csv,Read,Read2,GIVE,STEAK,Study1,U,93,87,Study,User,-,,Study/JOL,"Study Phase2",1202,,,-1,-1,,,,1
M20348487,zi6lgc1tl0,"Mediated JOLs",1,128,2024-12-02T06:49:48+00:00,1.6040160655975,3,versionB_stim.csv,ReadVersion.csv,Read,Read2,FUZZY,BANG,Study1,U,105,106,Study,User,-,,Study/JOL,"Study Phase2",1474,,,-1,-1,,,,1
M20348487,zi6lgc1tl0,"Mediated JOLs",1,129,2024-12-02T06:49:49+00:00,1.2120509147644,3,versionB_stim.csv,ReadVersion.csv,Read,Read2,HYGIENE,CLEAN,Study1,F,83,100,Study,User,-,,Study/JOL,"Study Phase2",1084,,,-1,-1,,,,1
M20348487,zi6lgc1tl0,"Mediated JOLs",1,130,2024-12-02T06:49:51+00:00,1.2691359519958,3,versionB_stim.csv,ReadVersion.csv,Read,Read2,KEYS,ROD,Study1,U,100,69,Study,User,-,,Study/JOL,"Study Phase2",1127,,,-1,-1,,,,1
M20348487,zi6lgc1tl0,"Mediated JOLs",1,131,2024-12-02T06:49:53+00:00,2.2829909324646,3,versionB_stim.csv,ReadVersion.csv,Read,Read2,HORSE,TIRE,Study1,M,69,71,Study,User,-,,Study/JOL,"Study Phase2",2150,,,-1,-1,,,,1
M20348487,zi6lgc1tl0,"Mediated JOLs",1,132,2024-12-02T06:49:54+00:00,1.294340133667,3,versionB_stim.csv,ReadVersion.csv,Read,Read2,SOON,BELT,Study1,U,101,96,Study,User,-,,Study/JOL,"Study Phase2",1152,,,-1,-1,,,,1
M20348487,zi6lgc1tl0,"Mediated JOLs",1,133,2024-12-02T06:49:56+00:00,1.3295860290527,3,versionB_stim.csv,ReadVersion.csv,Read,Read2,STRETCH,CLOTH,Study1,U,92,94,Study,User,-,,Study/JOL,"Study Phase2",1209,,,-1,-1,,,,1
M20348487,zi6lgc1tl0,"Mediated JOLs",1,134,2024-12-02T06:49:58+00:00,2.7813079357147,3,versionB_stim.csv,ReadVersion.csv,Read,Read2,ORCHID,FLOWER,Study1,F,89,101,Study,User,-,,Study/JOL,"Study Phase2",2652,,,-1,-1,,,,1
M20348487,zi6lgc1tl0,"Mediated JOLs",1,135,2024-12-02T06:50:02+00:00,3.6431350708008,3,versionB_stim.csv,ReadVersion.csv,Read,Read2,MIRROR,MAROON,Study1,U,91,92,Study,User,-,,Study/JOL,"Study Phase2",3512,,,-1,-1,,,,1
M20348487,zi6lgc1tl0,"Mediated JOLs",1,136,2024-12-02T06:50:06+00:00,3.6691479682922,3,versionB_stim.csv,ReadVersion.csv,Read,Read2,TEMPERATURE,MORNING,Study1,U,103,105,Study,User,-,,Study/JOL,"Study Phase2",3537,,,-1,-1,,,,1
M20348487,zi6lgc1tl0,"Mediated JOLs",1,137,2024-12-02T06:50:07+00:00,1.3943099975586,3,versionB_stim.csv,ReadVersion.csv,Read,Read2,NAP,SLEEP,Study1,F,84,104,Study,User,-,,Study/JOL,"Study Phase2",1266,,,-1,-1,,,,1
M20348487,zi6lgc1tl0,"Mediated JOLs",1,138,2024-12-02T06:50:10+00:00,2.4019799232483,3,versionB_stim.csv,ReadVersion.csv,Read,Read2,CAKE,HAND,Study1,U,104,84,Study,User,-,,Study/JOL,"Study Phase2",2268,,,-1,-1,,,,1
M20348487,zi6lgc1tl0,"Mediated JOLs",1,139,2024-12-02T06:50:13+00:00,3.4457969665527,3,versionB_stim.csv,ReadVersion.csv,Read,Read2,TREE,PANCAKES,Study1,M,66,65,Study,User,-,,Study/JOL,"Study Phase2",3315,,,-1,-1,,,,1
M20348487,zi6lgc1tl0,"Mediated JOLs",1,140,2024-12-02T06:50:14+00:00,1.2481160163879,3,versionB_stim.csv,ReadVersion.csv,Read,Read2,AFFECTION,LOVE,Study1,F,86,83,Study,User,-,,Study/JOL,"Study Phase2",1121,,,-1,-1,,,,1
M20348487,zi6lgc1tl0,"Mediated JOLs",1,141,2024-12-02T06:50:17+00:00,2.5086071491241,3,versionB_stim.csv,ReadVersion.csv,Read,Read2,SIP,DRINK,Study1,F,87,99,Study,User,-,,Study/JOL,"Study Phase2",2361,,,-1,-1,,,,1
M20348487,zi6lgc1tl0,"Mediated JOLs",1,142,2024-12-02T06:50:19+00:00,2.2967429161072,3,versionB_stim.csv,ReadVersion.csv,Read,Read2,ROUGH,WORM,Study1,M,65,77,Study,User,-,,Study/JOL,"Study Phase2",2171,,,-1,-1,,,,1
M20348487,zi6lgc1tl0,"Mediated JOLs",1,143,2024-12-02T06:50:22+00:00,3.0649390220642,3,versionB_stim.csv,ReadVersion.csv,Read,Read2,WORD,SENTENCE,Study1,F,82,103,Study,User,-,,Study/JOL,"Study Phase2",2934,,,-1,-1,,,,1
M20348487,zi6lgc1tl0,"Mediated JOLs",1,144,2024-12-02T06:50:26+00:00,3.4390690326691,3,versionB_stim.csv,ReadVersion.csv,Read,Read2,BEACH,SQUARE,Study1,M,62,73,Study,User,-,,Study/JOL,"Study Phase2",3313,,,-1,-1,,,,1
M20348487,zi6lgc1tl0,"Mediated JOLs",1,145,2024-12-02T06:50:28+00:00,1.9747099876404,3,versionB_stim.csv,ReadVersion.csv,Read,Read2,TOOTH,COMB,Study1,M,74,88,Study,User,-,,Study/JOL,"Study Phase2",1848,,,-1,-1,,,,1
M20348487,zi6lgc1tl0,"Mediated JOLs",1,146,2024-12-02T06:50:34+00:00,6.1787168979645,3,versionB_stim.csv,ReadVersion.csv,Read,Read2,TUNA,FISH,Study1,F,90,79,Study,User,-,,Study/JOL,"Study Phase2",6051,,,-1,-1,,,,1
M20348487,zi6lgc1tl0,"Mediated JOLs",1,147,2024-12-02T06:50:36+00:00,2.4547710418701,3,versionB_stim.csv,ReadVersion.csv,Read,Read2,LION,FLAG,Study1,M,61,72,Study,User,-,,Study/JOL,"Study Phase2",2333,,,-1,-1,,,,1
M20348487,zi6lgc1tl0,"Mediated JOLs",1,148,2024-12-02T06:50:39+00:00,2.8234751224518,3,versionB_stim.csv,ReadVersion.csv,Read,Read2,WEDDING,HAND,Study1,M,72,81,Study,User,-,,Study/JOL,"Study Phase2",2693,,,-1,-1,,,,1
M20348487,zi6lgc1tl0,"Mediated JOLs",1,149,2024-12-02T06:50:41+00:00,1.9158217906952,3,versionB_stim.csv,ReadVersion.csv,Read,Read2,WAGE,MONEY,Study1,F,77,102,Study,User,-,,Study/JOL,"Study Phase2",1789,,,-1,-1,,,,1
M20348487,zi6lgc1tl0,"Mediated JOLs",1,150,2024-12-02T06:50:47+00:00,5.9363510608673,3,versionB_stim.csv,ReadVersion.csv,Read,Read2,VEHICLE,CHARM,Study1,U,95,64,Study,User,-,,Study/JOL,"Study Phase2",5805,,,-1,-1,,,,1
M20348487,zi6lgc1tl0,"Mediated JOLs",1,151,2024-12-02T06:50:49+00:00,2.5279970169067,3,versionB_stim.csv,ReadVersion.csv,Read,Read2,MEAT,KEYS,Study1,U,96,74,Study,User,-,,Study/JOL,"Study Phase2",2391,,,-1,-1,,,,1
M20348487,zi6lgc1tl0,"Mediated JOLs",1,152,2024-12-02T06:50:52+00:00,2.1842050552368,3,versionB_stim.csv,ReadVersion.csv,Read,Read2,DAY,BLACK,Study1,M,73,76,Study,User,-,,Study/JOL,"Study Phase2",2053,,,-1,-1,,,,1
M20348487,zi6lgc1tl0,"Mediated JOLs",1,153,2024-12-02T06:51:00+00:00,8.20516705513,3,versionB_stim.csv,ReadVersion.csv,Read,Read2,SHELL,SHAKE,Study1,U,98,68,Study,User,-,,Study/JOL,"Study Phase2",8073,,,-1,-1,,,,1
M20348487,zi6lgc1tl0,"Mediated JOLs",1,154,2024-12-02T06:51:09+00:00,9.3950660228729,3,versionB_stim.csv,ReadVersion.csv,Read,Read2,MAZE,PHONE,Study1,U,97,70,Study,User,-,,Study/JOL,"Study Phase2",9264,,,-1,-1,,,,1
M20348487,zi6lgc1tl0,"Mediated JOLs",1,155,2024-12-02T06:51:13+00:00,3.4679777622223,3,versionB_stim.csv,ReadVersion.csv,Read,Read2,MULE,DONKEY,Study1,F,85,67,Study,User,-,,Study/JOL,"Study Phase2",3329,,,-1,-1,,,,1
M20348487,zi6lgc1tl0,"Mediated JOLs",1,156,2024-12-02T06:51:15+00:00,2.3174891471863,3,versionB_stim.csv,ReadVersion.csv,Read,Read2,SIGN,TICK,Study1,U,102,85,Study,User,-,,Study/JOL,"Study Phase2",2187,,,-1,-1,,,,1
M20348487,zi6lgc1tl0,"Mediated JOLs",1,157,2024-12-02T06:51:16+00:00,1.2721619606018,3,versionB_stim.csv,ReadVersion.csv,Read,Read2,LITTER,TRASH,Study1,F,76,62,Study,User,-,,Study/JOL,"Study Phase2",1134,,,-1,-1,,,,1
M20348487,zi6lgc1tl0,"Mediated JOLs",1,158,2024-12-02T06:51:20+00:00,3.7455589771271,3,versionB_stim.csv,ReadVersion.csv,Read,Read2,TREES,GREEN,BUFFER1,Buffer,56,60,Study,User,-,,Study/JOL,BUFFER2,3616,,,-1,-1,,,,1
M20348487,zi6lgc1tl0,"Mediated JOLs",1,159,2024-12-02T06:51:23+00:00,2.6982071399689,3,versionB_stim.csv,ReadVersion.csv,Read,Read2,SHRIMP,FISH,BUFFER4,Buffer,53,55,Study,User,-,,Study/JOL,BUFFER2,2567,,,-1,-1,,,,1
M20348487,zi6lgc1tl0,"Mediated JOLs",1,160,2024-12-02T06:51:24+00:00,1.5824480056763,3,versionB_stim.csv,ReadVersion.csv,Read,Read2,PEANUT,BUTTER,BUFFER1,Buffer,58,61,Study,User,-,,Study/JOL,BUFFER2,1457,,,-1,-1,,,,1
M20348487,zi6lgc1tl0,"Mediated JOLs",1,161,2024-12-02T06:51:27+00:00,2.8408758640289,3,versionB_stim.csv,ReadVersion.csv,Read,Read2,THING,STUFF,BUFFER2,Buffer,110,110,Study,User,-,,Study/JOL,BUFFER2,2689,,,-1,-1,,,,1
M20348487,zi6lgc1tl0,"Mediated JOLs",1,162,2024-12-02T06:51:28+00:00,1.0464041233063,3,versionB_stim.csv,ReadVersion.csv,Read,Read2,SPACE,JAM,BUFFER1,Buffer,60,57,Study,User,-,,Study/JOL,BUFFER2,910,,,-1,-1,,,,1
M20348487,zi6lgc1tl0,"Mediated JOLs",1,163,2024-12-02T06:51:30+00:00,1.9545559883118,3,versionB_stim.csv,ReadVersion.csv,Read,Read2,,,,,,0,Instruct,User,-,"You have completed this section. Please press Enter.",Filler_Instruction,Instruct2,1827,,,-1,-1,,,,1
M20348487,zi6lgc1tl0,"Mediated JOLs",1,164,2024-12-02T06:53:30+00:00,120.20135998726,3,versionB_stim.csv,ReadVersion.csv,Read,Read2,,,,,,0,FreeRecall,120,120,"Please list the 50 US states in alphabetical order. The task will automatically advance to the next screen after two minutes.",,Filler1,120000,"Alabama Alaska Arizona Arkansas California Connecticut Delaware Denver Floridia Georgia Indiana Iowa",0,4346,119981,0,0,,0.957
M20348487,zi6lgc1tl0,"Mediated JOLs",1,165,2024-12-02T06:53:51+00:00,20.686146974564,3,versionB_stim.csv,ReadVersion.csv,Read,Read2,,,,,,0,Instruct,-,10,"You will now be presented with the first word from each of the previously studied item pairs. Please type the missing word. If you do not know the word, you may guess or press Enter to skip forward to the next pair.",,Instruct3,20546,,,-1,-1,,,,1
M20348487,zi6lgc1tl0,"Mediated JOLs",1,166,2024-12-02T06:53:53+00:00,2.3680648803711,3,versionB_stim.csv,ReadVersion.csv,Read,Read2,CIRCLE,FUN,Study1,M,68,91,Test,User,-,,Recall,Recall2,2228,,0,-1,-1,0,0,,1
M20348487,zi6lgc1tl0,"Mediated JOLs",1,167,2024-12-02T06:53:55+00:00,1.3241100311279,3,versionB_stim.csv,ReadVersion.csv,Read,Read2,SOON,BELT,Study1,U,101,96,Test,User,-,,Recall,Recall2,1197,,0,-1,-1,0,0,,1
M20348487,zi6lgc1tl0,"Mediated JOLs",1,168,2024-12-02T06:53:56+00:00,1.6205949783325,3,versionB_stim.csv,ReadVersion.csv,Read,Read2,ROUGH,WORM,Study1,M,65,77,Test,User,-,,Recall,Recall2,1484,,0,-1,-1,0,0,,1
M20348487,zi6lgc1tl0,"Mediated JOLs",1,169,2024-12-02T06:53:58+00:00,1.7641041278839,3,versionB_stim.csv,ReadVersion.csv,Read,Read2,AFFECTION,LOVE,Study1,F,86,83,Test,User,-,,Recall,Recall2,1636,,0,-1,-1,0,0,,1
M20348487,zi6lgc1tl0,"Mediated JOLs",1,170,2024-12-02T06:54:02+00:00,4.0597150325775,3,versionB_stim.csv,ReadVersion.csv,Read,Read2,MULE,DONKEY,Study1,F,79,78,Test,User,-,,Recall,Recall2,3920,Donkey,100,2388,3706,1,1,,1
M20348487,zi6lgc1tl0,"Mediated JOLs",1,171,2024-12-02T06:54:05+00:00,3.1495859622955,3,versionB_stim.csv,ReadVersion.csv,Read,Read2,SWAN,BIRD,Study1,F,81,80,Test,User,-,,Recall,Recall2,3017,Lake,0,1881,2788,0,0,,1
M20348487,zi6lgc1tl0,"Mediated JOLs",1,172,2024-12-02T06:54:11+00:00,6.1200530529022,3,versionB_stim.csv,ReadVersion.csv,Read,Read2,TOOTH,COMB,Study1,M,74,88,Test,User,-,,Recall,Recall2,5989,Comb,100,2513,5405,1,1,,1
M20348487,zi6lgc1tl0,"Mediated JOLs",1,173,2024-12-02T06:54:15+00:00,3.2430830001831,3,versionB_stim.csv,ReadVersion.csv,Read,Read2,MIRROR,MAROON,Study1,U,91,92,Test,User,-,,Recall,Recall2,3111,Maroon,100,1472,2735,1,1,,1
M20348487,zi6lgc1tl0,"Mediated JOLs",1,174,2024-12-02T06:54:25+00:00,10.551541805267,3,versionB_stim.csv,ReadVersion.csv,Read,Read2,SCALP,HEAD,Study1,F,78,90,Test,User,-,,Recall,Recall2,10410,Head,100,7882,9166,1,1,,1
M20348487,zi6lgc1tl0,"Mediated JOLs",1,175,2024-12-02T06:54:27+00:00,1.569491147995,3,versionB_stim.csv,ReadVersion.csv,Read,Read2,WORD,SENTENCE,Study1,F,82,103,Test,User,-,,Recall,Recall2,1437,,0,-1,-1,0,0,,1
M20348487,zi6lgc1tl0,"Mediated JOLs",1,176,2024-12-02T06:54:31+00:00,3.8022818565369,3,versionB_stim.csv,ReadVersion.csv,Read,Read2,LITTER,TRASH,Study1,F,76,62,Test,User,-,,Recall,Recall2,3668,Trash,100,1390,3236,1,1,,1
M20348487,zi6lgc1tl0,"Mediated JOLs",1,177,2024-12-02T06:54:38+00:00,7.5650081634521,3,versionB_stim.csv,ReadVersion.csv,Read,Read2,BIRTHDAY,APPLE,Study1,M,64,75,Test,User,-,,Recall,Recall2,7417,Date,44.444444444444,4527,5201,0,0,,1
M20348487,zi6lgc1tl0,"Mediated JOLs",1,178,2024-12-02T06:54:41+00:00,2.8120579719543,3,versionB_stim.csv,ReadVersion.csv,Read,Read2,LION,FLAG,Study1,M,61,72,Test,User,-,,Recall,Recall2,2672,,0,-1,-1,0,0,,1
M20348487,zi6lgc1tl0,"Mediated JOLs",1,179,2024-12-02T06:54:46+00:00,4.9913449287415,3,versionB_stim.csv,ReadVersion.csv,Read,Read2,CRACKLE,ELECTION,Study1,U,94,86,Test,User,-,,Recall,Recall2,4857,,0,-1,-1,0,0,,1
M20348487,zi6lgc1tl0,"Mediated JOLs",1,180,2024-12-02T06:54:53+00:00,6.9358019828796,3,versionB_stim.csv,ReadVersion.csv,Read,Read2,CRY,BEER,Study1,M,71,93,Test,User,-,,Recall,Recall2,6803,,0,4894,4894,0,0,,1
M20348487,zi6lgc1tl0,"Mediated JOLs",1,181,2024-12-02T06:54:58+00:00,5.208221912384,3,versionB_stim.csv,ReadVersion.csv,Read,Read2,SHELL,SHAKE,Study1,U,98,68,Test,User,-,,Recall,Recall2,5075,Hard,44.444444444444,3445,4375,0,0,,1
M20348487,zi6lgc1tl0,"Mediated JOLs",1,182,2024-12-02T06:55:00+00:00,1.6873631477356,3,versionB_stim.csv,ReadVersion.csv,Read,Read2,VEHICLE,CHARM,Study1,U,95,64,Test,User,-,,Recall,Recall2,1556,,0,-1,-1,0,0,,1
M20348487,zi6lgc1tl0,"Mediated JOLs",1,183,2024-12-02T06:55:04+00:00,4.5363059043884,3,versionB_stim.csv,ReadVersion.csv,Read,Read2,CREDIT,CARD,Study1,F,88,97,Test,User,-,,Recall,Recall2,4405,Cash,50,1339,3447,0,0,,1
M20348487,zi6lgc1tl0,"Mediated JOLs",1,184,2024-12-02T06:55:08+00:00,3.288122177124,3,versionB_stim.csv,ReadVersion.csv,Read,Read2,WAGE,MONEY,Study1,F,77,102,Test,User,-,,Recall,Recall2,3151,Money,100,1586,2648,1,1,,1
M20348487,zi6lgc1tl0,"Mediated JOLs",1,185,2024-12-02T06:55:09+00:00,1.9312269687653,3,versionB_stim.csv,ReadVersion.csv,Read,Read2,MAZE,PHONE,Study1,U,97,70,Test,User,-,,Recall,Recall2,1795,,0,-1,-1,0,0,,1
M20348487,zi6lgc1tl0,"Mediated JOLs",1,186,2024-12-02T06:55:13+00:00,3.848680973053,3,versionB_stim.csv,ReadVersion.csv,Read,Read2,LISTEN,FICTION,Study1,U,99,89,Test,User,-,,Recall,Recall2,3716,Loud,18.181818181818,2778,3540,0,0,,1
M20348487,zi6lgc1tl0,"Mediated JOLs",1,187,2024-12-02T06:55:19+00:00,5.2122828960419,3,versionB_stim.csv,ReadVersion.csv,Read,Read2,BEACH,SQUARE,Study1,M,62,73,Test,User,-,,Recall,Recall2,5077,Square,100,3111,4923,1,1,,1
M20348487,zi6lgc1tl0,"Mediated JOLs",1,188,2024-12-02T06:55:24+00:00,5.2776131629944,3,versionB_stim.csv,ReadVersion.csv,Read,Read2,HARD,BALL,Study1,M,75,98,Test,User,-,,Recall,Recall2,5144,,0,-1,-1,0,0,,1
M20348487,zi6lgc1tl0,"Mediated JOLs",1,189,2024-12-02T06:55:31+00:00,6.9988839626312,3,versionB_stim.csv,ReadVersion.csv,Read,Read2,ORCHID,FLOWER,Study1,F,89,101,Test,User,-,,Recall,Recall2,6863,Flower,100,2162,5331,1,1,,1
M20348487,zi6lgc1tl0,"Mediated JOLs",1,190,2024-12-02T06:55:34+00:00,2.8759310245514,3,versionB_stim.csv,ReadVersion.csv,Read,Read2,CEILING,RUG,Study1,M,70,95,Test,User,-,,Recall,Recall2,2745,,0,-1,-1,0,0,,1
M20348487,zi6lgc1tl0,"Mediated JOLs",1,191,2024-12-02T06:55:39+00:00,5.5314819812775,3,versionB_stim.csv,ReadVersion.csv,Read,Read2,STRETCH,CLOTH,Study1,U,92,94,Test,User,-,,Recall,Recall2,5400,Cloth,100,3948,4793,1,1,,1
M20348487,zi6lgc1tl0,"Mediated JOLs",1,192,2024-12-02T06:55:45+00:00,5.4282310009003,3,versionB_stim.csv,ReadVersion.csv,Read,Read2,CAKE,HAND,Study1,U,104,84,Test,User,-,,Recall,Recall2,5279,Hand,100,3974,5080,1,1,,1
M20348487,zi6lgc1tl0,"Mediated JOLs",1,193,2024-12-02T06:55:53+00:00,8.0386188030243,3,versionB_stim.csv,ReadVersion.csv,Read,Read2,SIP,DRINK,Study1,F,87,99,Test,User,-,,Recall,Recall2,7906,,0,-1,-1,0,0,,0.875
M20348487,zi6lgc1tl0,"Mediated JOLs",1,194,2024-12-02T06:56:02+00:00,9.0573320388794,3,versionB_stim.csv,ReadVersion.csv,Read,Read2,TEMPERATURE,MORNING,Study1,U,103,105,Test,User,-,,Recall,Recall2,8918,Room,18.181818181818,4699,5987,0,0,,1
M20348487,zi6lgc1tl0,"Mediated JOLs",1,195,2024-12-02T06:56:03+00:00,1.3599190711975,3,versionB_stim.csv,ReadVersion.csv,Read,Read2,ROOT,PLANT,Study1,F,80,82,Test,User,-,,Recall,Recall2,1223,,0,-1,-1,0,0,,1
M20348487,zi6lgc1tl0,"Mediated JOLs",1,196,2024-12-02T06:56:06+00:00,2.8026599884033,3,versionB_stim.csv,ReadVersion.csv,Read,Read2,WEDDING,HAND,Study1,M,72,81,Test,User,-,,Recall,Recall2,2657,Hand,100,1611,2422,1,1,,1
M20348487,zi6lgc1tl0,"Mediated JOLs",1,197,2024-12-02T06:56:08+00:00,1.8815610408783,3,versionB_stim.csv,ReadVersion.csv,Read,Read2,WAR,LOUD,Study1,M,63,66,Test,User,-,,Recall,Recall2,1742,,0,-1,-1,0,0,,1
M20348487,zi6lgc1tl0,"Mediated JOLs",1,198,2024-12-02T06:56:12+00:00,4.5402460098267,3,versionB_stim.csv,ReadVersion.csv,Read,Read2,TREE,PANCAKES,Study1,M,66,65,Test,User,-,,Recall,Recall2,4403,Green,15.384615384615,2263,3198,0,0,,1
M20348487,zi6lgc1tl0,"Mediated JOLs",1,199,2024-12-02T06:56:22+00:00,9.5923478603363,3,versionB_stim.csv,ReadVersion.csv,Read,Read2,NAP,SLEEP,Study1,F,84,104,Test,User,-,,Recall,Recall2,9464,Sleep,100,6494,9140,1,1,,1
M20348487,zi6lgc1tl0,"Mediated JOLs",1,200,2024-12-02T06:56:26+00:00,4.0803141593933,3,versionB_stim.csv,ReadVersion.csv,Read,Read2,SIGN,TICK,Study1,U,102,85,Test,User,-,,Recall,Recall2,3945,,0,1745,1745,0,0,,1
M20348487,zi6lgc1tl0,"Mediated JOLs",1,201,2024-12-02T06:56:29+00:00,2.8935718536377,3,versionB_stim.csv,ReadVersion.csv,Read,Read2,KEYS,ROD,Study1,U,100,69,Test,User,-,,Recall,Recall2,2755,Car,33.333333333333,2004,2373,0,0,,1
M20348487,zi6lgc1tl0,"Mediated JOLs",1,202,2024-12-02T06:56:33+00:00,4.2176702022552,3,versionB_stim.csv,ReadVersion.csv,Read,Read2,MEAT,KEYS,Study1,U,96,74,Test,User,-,,Recall,Recall2,4081,,0,-1,-1,0,0,,1
M20348487,zi6lgc1tl0,"Mediated JOLs",1,203,2024-12-02T06:56:39+00:00,5.4935557842255,3,versionB_stim.csv,ReadVersion.csv,Read,Read2,HYGIENE,CLEAN,Study1,F,83,100,Test,User,-,,Recall,Recall2,5359,Clean,100,3914,4965,1,1,,1
M20348487,zi6lgc1tl0,"Mediated JOLs",1,204,2024-12-02T06:56:48+00:00,9.5066361427307,3,versionB_stim.csv,ReadVersion.csv,Read,Read2,MULE,DONKEY,Study1,F,85,67,Test,User,-,,Recall,Recall2,9365,,0,-1,-1,0,0,,1
M20348487,zi6lgc1tl0,"Mediated JOLs",1,205,2024-12-02T06:56:58+00:00,9.7620780467987,3,versionB_stim.csv,ReadVersion.csv,Read,Read2,TUNA,FISH,Study1,F,90,79,Test,User,-,,Recall,Recall2,9630,Fish,100,8643,9230,1,1,,0.816
M20348487,zi6lgc1tl0,"Mediated JOLs",1,206,2024-12-02T06:57:01+00:00,2.664137840271,3,versionB_stim.csv,ReadVersion.csv,Read,Read2,BAT,JUMP,Study1,M,67,63,Test,User,-,,Recall,Recall2,2516,Dark,0,1312,2233,0,0,,1
M20348487,zi6lgc1tl0,"Mediated JOLs",1,207,2024-12-02T06:57:04+00:00,3.2235870361328,3,versionB_stim.csv,ReadVersion.csv,Read,Read2,DAY,BLACK,Study1,M,73,76,Test,User,-,,Recall,Recall2,3085,Date,22.222222222222,2449,2962,0,0,,1
M20348487,zi6lgc1tl0,"Mediated JOLs",1,208,2024-12-02T06:57:05+00:00,1.6983880996704,3,versionB_stim.csv,ReadVersion.csv,Read,Read2,FUZZY,BANG,Study1,U,105,106,Test,User,-,,Recall,Recall2,1558,,0,-1,-1,0,0,,1
M20348487,zi6lgc1tl0,"Mediated JOLs",1,209,2024-12-02T06:57:12+00:00,6.6800010204315,3,versionB_stim.csv,ReadVersion.csv,Read,Read2,GIVE,STEAK,Study1,U,93,87,Test,User,-,,Recall,Recall2,6546,,0,-1,-1,0,0,,1
M20348487,zi6lgc1tl0,"Mediated JOLs",1,210,2024-12-02T06:57:21+00:00,8.6883289813995,3,versionB_stim.csv,ReadVersion.csv,Read,Read2,HORSE,TIRE,Study1,M,69,71,Test,User,-,,Recall,Recall2,8557,Tail,50,5019,8298,0,0,,1
M20348487,zi6lgc1tl0,"Mediated JOLs",1,211,2024-12-02T06:57:22+00:00,0.90756797790527,3,versionB_stim.csv,ReadVersion.csv,Read,Read2,,,,,,0,Instruct,User,-,"You have completed this section. Please press Enter.",,Instruct7,782,,,-1,-1,,,,1
M20348487,zi6lgc1tl0,"Mediated JOLs",1,212,2024-12-02T06:57:25+00:00,3.4096899032593,3,versionB_stim.csv,ReadVersion.csv,Read,Read2,,,,,,0,Instruct,User,-,"The following screen will ask you a few questions abour your experience today. You must complete these questions to receive credit.",,Instruct8,3278,,,-1,-1,,,,1
