Username,ID,ExperimentName,Session,Trial,Date,TimeDif,"Condition Number","Stimuli File","Order File","Condition Description","Condition Notes",Stimuli*Cue,Stimuli*Answer,Stimuli*Shuffle,"Stimuli*Stimuli Notes",Stimuli*Value,Procedure*Item,"Procedure*Trial Type","Procedure*Max Time","Procedure*Min Time",Procedure*Text,"Procedure*Procedure Notes",Procedure*Shuffle,Response*RT,Response*Response,Response*Accuracy,Response*RTfirst,Response*RTlast,Response*strictAcc,Response*lenientAcc,Response*focus,Response*Focus
M20223504BG,82iukoa9k8,"Mediated JOLs",1,1,2024-11-28T01:39:41+00:00,90.718925952911,1,versionA_stim.csv,ReadVersion.csv,Read,Read1,,,,,,0,Instruct,-,5,"In this section, you will be presented with a series of word pairs. Please study each word pair! Your memory will be tested!",Initial_Instruct,Instruct1,90591,,,-1,-1,,,,1
M20223504BG,82iukoa9k8,"Mediated JOLs",1,2,2024-11-28T01:39:46+00:00,4.3158938884735,1,versionA_stim.csv,ReadVersion.csv,Read,Read1,,,,,,0,Instruct,User,-,"You will now begin. Press Enter when you are ready to begin.",,Instruct16,4242,,,-1,-1,,,,1
M20223504BG,82iukoa9k8,"Mediated JOLs",1,3,2024-11-28T01:39:49+00:00,2.9057190418243,1,versionA_stim.csv,ReadVersion.csv,Read,Read1,PITCHER,CATCHER,BUFFER1,Buffer,2,2,Study,User,-,,Study/JOL,BUFFER,2836,,,-1,-1,,,,1
M20223504BG,82iukoa9k8,"Mediated JOLs",1,4,2024-11-28T01:40:04+00:00,15.095810890198,1,versionA_stim.csv,ReadVersion.csv,Read,Read1,SPACE,JAM,BUFFER1,Buffer,5,3,Study,User,-,,Study/JOL,BUFFER,15022,,,-1,-1,,,,0.27
M20223504BG,82iukoa9k8,"Mediated JOLs",1,5,2024-11-28T01:40:09+00:00,5.698429107666,1,versionA_stim.csv,ReadVersion.csv,Read,Read1,TREES,GREEN,BUFFER1,Buffer,1,6,Study,User,-,,Study/JOL,BUFFER,5619,,,-1,-1,,,,0.643
M20223504BG,82iukoa9k8,"Mediated JOLs",1,6,2024-11-28T01:40:14+00:00,4.8568561077118,1,versionA_stim.csv,ReadVersion.csv,Read,Read1,SCARE,FRIGHT,BUFFER1,Buffer,4,5,Study,User,-,,Study/JOL,BUFFER,4789,,,-1,-1,,,,0.667
M20223504BG,82iukoa9k8,"Mediated JOLs",1,7,2024-11-28T01:40:36+00:00,21.674838781357,1,versionA_stim.csv,ReadVersion.csv,Read,Read1,PEANUT,BUTTER,BUFFER1,Buffer,3,4,Study,User,-,,Study/JOL,BUFFER,21605,,,-1,-1,,,,0.336
M20223504BG,82iukoa9k8,"Mediated JOLs",1,8,2024-11-28T01:40:40+00:00,4.2043960094452,1,versionA_stim.csv,ReadVersion.csv,Read,Read1,LOUD,WAR,Study1,M,8,48,Study,User,-,,Study/JOL,"Study Phase",4134,,,-1,-1,,,,0.571
M20223504BG,82iukoa9k8,"Mediated JOLs",1,9,2024-11-28T01:40:45+00:00,5.2096390724182,1,versionA_stim.csv,ReadVersion.csv,Read,Read1,KEYS,MEAT,Study1,U,41,22,Study,User,-,,Study/JOL,"Study Phase",5142,,,-1,-1,,,,0.731
M20223504BG,82iukoa9k8,"Mediated JOLs",1,10,2024-11-28T01:40:53+00:00,8.1214210987091,1,versionA_stim.csv,ReadVersion.csv,Read,Read1,SLEEP,NAP,Study1,F,29,27,Study,User,-,,Study/JOL,"Study Phase",8048,,,-1,-1,,,,0.525
M20223504BG,82iukoa9k8,"Mediated JOLs",1,11,2024-11-28T01:40:59+00:00,5.9014120101929,1,versionA_stim.csv,ReadVersion.csv,Read,Read1,ROD,KEYS,Study1,U,45,38,Study,User,-,,Study/JOL,"Study Phase",5826,,,-1,-1,,,,0.552
M20223504BG,82iukoa9k8,"Mediated JOLs",1,12,2024-11-28T01:41:10+00:00,10.806147813797,1,versionA_stim.csv,ReadVersion.csv,Read,Read1,PLANT,ROOT,Study1,F,25,35,Study,User,-,,Study/JOL,"Study Phase",10731,,,-1,-1,,,,0.358
M20223504BG,82iukoa9k8,"Mediated JOLs",1,13,2024-11-28T01:41:21+00:00,11.162056207657,1,versionA_stim.csv,ReadVersion.csv,Read,Read1,SHAKE,SHELL,Study1,U,43,39,Study,User,-,,Study/JOL,"Study Phase",11088,,,-1,-1,,,,0.891
M20223504BG,82iukoa9k8,"Mediated JOLs",1,14,2024-11-28T01:41:28+00:00,6.3111159801483,1,versionA_stim.csv,ReadVersion.csv,Read,Read1,BANG,FUZZY,Study1,U,50,43,Study,User,-,,Study/JOL,"Study Phase",6247,,,-1,-1,,,,0.645
M20223504BG,82iukoa9k8,"Mediated JOLs",1,15,2024-11-28T01:41:34+00:00,6.4567279815674,1,versionA_stim.csv,ReadVersion.csv,Read,Read1,CHARM,VEHICLE,Study1,U,40,44,Study,User,-,,Study/JOL,"Study Phase",6393,,,-1,-1,,,,0.563
M20223504BG,82iukoa9k8,"Mediated JOLs",1,16,2024-11-28T01:41:40+00:00,5.7019050121307,1,versionA_stim.csv,ReadVersion.csv,Read,Read1,MAROON,MIRROR,Study1,U,36,7,Study,User,-,,Study/JOL,"Study Phase",5631,,,-1,-1,,,,0.643
M20223504BG,82iukoa9k8,"Mediated JOLs",1,17,2024-11-28T01:41:49+00:00,9.6492969989777,1,versionA_stim.csv,ReadVersion.csv,Read,Read1,FUN,CIRCLE,Study1,M,13,34,Study,User,-,,Study/JOL,"Study Phase",9580,,,-1,-1,,,,0.333
M20223504BG,82iukoa9k8,"Mediated JOLs",1,18,2024-11-28T01:41:50+00:00,0.64382886886597,1,versionA_stim.csv,ReadVersion.csv,Read,Read1,ELECTION,CRACKLE,Study1,U,39,20,Study,User,-,,Study/JOL,"Study Phase",579,,,-1,-1,,,,1
M20223504BG,82iukoa9k8,"Mediated JOLs",1,19,2024-11-28T01:41:50+00:00,0.30978608131409,1,versionA_stim.csv,ReadVersion.csv,Read,Read1,HEAD,SCALP,Study1,F,23,9,Study,User,-,,Study/JOL,"Study Phase",246,,,-1,-1,,,,1
M20223504BG,82iukoa9k8,"Mediated JOLs",1,20,2024-11-28T01:41:51+00:00,0.29033207893372,1,versionA_stim.csv,ReadVersion.csv,Read,Read1,BEER,CRY,Study1,M,16,49,Study,User,-,,Study/JOL,"Study Phase",226,,,-1,-1,,,,1
M20223504BG,82iukoa9k8,"Mediated JOLs",1,21,2024-11-28T01:41:51+00:00,0.30458879470825,1,versionA_stim.csv,ReadVersion.csv,Read,Read1,RUG,CEILING,Study1,M,15,46,Study,User,-,,Study/JOL,"Study Phase",239,,,-1,-1,,,,1
M20223504BG,82iukoa9k8,"Mediated JOLs",1,22,2024-11-28T01:41:51+00:00,0.31229901313782,1,versionA_stim.csv,ReadVersion.csv,Read,Read1,SQUARE,BEACH,Study1,M,7,23,Study,User,-,,Study/JOL,"Study Phase",250,,,-1,-1,,,,1
M20223504BG,82iukoa9k8,"Mediated JOLs",1,23,2024-11-28T01:41:52+00:00,0.3094310760498,1,versionA_stim.csv,ReadVersion.csv,Read,Read1,CLEAN,HYGIENE,Study1,F,28,18,Study,User,-,,Study/JOL,"Study Phase",237,,,-1,-1,,,,1
M20223504BG,82iukoa9k8,"Mediated JOLs",1,24,2024-11-28T01:41:52+00:00,0.27317309379578,1,versionA_stim.csv,ReadVersion.csv,Read,Read1,STEAK,GIVE,Study1,U,38,13,Study,User,-,,Study/JOL,"Study Phase",211,,,-1,-1,,,,1
M20223504BG,82iukoa9k8,"Mediated JOLs",1,25,2024-11-28T01:41:56+00:00,4.3472440242767,1,versionA_stim.csv,ReadVersion.csv,Read,Read1,FLOWER,ORCHID,Study1,F,34,47,Study,User,-,,Study/JOL,"Study Phase",4281,,,-1,-1,,,,0.682
M20223504BG,82iukoa9k8,"Mediated JOLs",1,26,2024-11-28T01:42:01+00:00,4.5516757965088,1,versionA_stim.csv,ReadVersion.csv,Read,Read1,HAND,CAKE,Study1,U,49,50,Study,User,-,,Study/JOL,"Study Phase",4481,,,-1,-1,,,,0.591
M20223504BG,82iukoa9k8,"Mediated JOLs",1,27,2024-11-28T01:42:05+00:00,4.5411951541901,1,versionA_stim.csv,ReadVersion.csv,Read,Read1,TIRE,HORSE,Study1,M,14,10,Study,User,-,,Study/JOL,"Study Phase",4473,,,-1,-1,,,,0.591
M20223504BG,82iukoa9k8,"Mediated JOLs",1,28,2024-11-28T01:42:52+00:00,46.551591873169,1,versionA_stim.csv,ReadVersion.csv,Read,Read1,BIRD,SWAN,Study1,F,26,30,Study,User,-,,Study/JOL,"Study Phase",46473,,,-1,-1,,,,0.168
M20223504BG,82iukoa9k8,"Mediated JOLs",1,29,2024-11-28T01:42:57+00:00,4.9165651798248,1,versionA_stim.csv,ReadVersion.csv,Read,Read1,TICK,SIGN,Study1,U,47,29,Study,User,-,,Study/JOL,"Study Phase",4846,,,-1,-1,,,,0.667
M20223504BG,82iukoa9k8,"Mediated JOLs",1,30,2024-11-28T01:43:01+00:00,4.1805989742279,1,versionA_stim.csv,ReadVersion.csv,Read,Read1,HAND,WEDDING,Study1,M,17,11,Study,User,-,,Study/JOL,"Study Phase",4113,,,-1,-1,,,,0.619
M20223504BG,82iukoa9k8,"Mediated JOLs",1,31,2024-11-28T01:43:05+00:00,4.5502488613129,1,versionA_stim.csv,ReadVersion.csv,Read,Read1,BELT,SOON,Study1,U,46,33,Study,User,-,,Study/JOL,"Study Phase",4479,,,-1,-1,,,,0.636
M20223504BG,82iukoa9k8,"Mediated JOLs",1,32,2024-11-28T01:43:13+00:00,7.1642999649048,1,versionA_stim.csv,ReadVersion.csv,Read,Read1,CLOTH,STRETCH,Study1,U,37,19,Study,User,-,,Study/JOL,"Study Phase",7097,,,-1,-1,,,,0.806
M20223504BG,82iukoa9k8,"Mediated JOLs",1,33,2024-11-28T01:43:18+00:00,5.5598649978638,1,versionA_stim.csv,ReadVersion.csv,Read,Read1,DONKEY,MULE,Study1,F,24,45,Study,User,-,,Study/JOL,"Study Phase",5488,,,-1,-1,,,,0.704
M20223504BG,82iukoa9k8,"Mediated JOLs",1,34,2024-11-28T01:43:23+00:00,5.0274751186371,1,versionA_stim.csv,ReadVersion.csv,Read,Read1,PANCAKES,TREE,Study1,M,11,17,Study,User,-,,Study/JOL,"Study Phase",4960,,,-1,-1,,,,0.68
M20223504BG,82iukoa9k8,"Mediated JOLs",1,35,2024-11-28T01:43:27+00:00,4.0557129383087,1,versionA_stim.csv,ReadVersion.csv,Read,Read1,FICTION,LISTEN,Study1,U,44,12,Study,User,-,,Study/JOL,"Study Phase",3982,,,-1,-1,,,,0.65
M20223504BG,82iukoa9k8,"Mediated JOLs",1,36,2024-11-28T01:43:31+00:00,4.0761320590973,1,versionA_stim.csv,ReadVersion.csv,Read,Read1,FISH,TUNA,Study1,F,35,21,Study,User,-,,Study/JOL,"Study Phase",4009,,,-1,-1,,,,0.6
M20223504BG,82iukoa9k8,"Mediated JOLs",1,37,2024-11-28T01:43:36+00:00,4.3418130874634,1,versionA_stim.csv,ReadVersion.csv,Read,Read1,APPLE,BIRTHDAY,Study1,M,9,26,Study,User,-,,Study/JOL,"Study Phase",4272,,,-1,-1,,,,0.619
M20223504BG,82iukoa9k8,"Mediated JOLs",1,38,2024-11-28T01:43:40+00:00,4.6536920070648,1,versionA_stim.csv,ReadVersion.csv,Read,Read1,JUMP,BAT,Study1,M,12,41,Study,User,-,,Study/JOL,"Study Phase",4580,,,-1,-1,,,,0.522
M20223504BG,82iukoa9k8,"Mediated JOLs",1,39,2024-11-28T01:43:45+00:00,4.4051039218903,1,versionA_stim.csv,ReadVersion.csv,Read,Read1,PHONE,MAZE,Study1,U,42,51,Study,User,-,,Study/JOL,"Study Phase",4341,,,-1,-1,,,,0.682
M20223504BG,82iukoa9k8,"Mediated JOLs",1,40,2024-11-28T01:43:52+00:00,7.3276798725128,1,versionA_stim.csv,ReadVersion.csv,Read,Read1,BLACK,DAY,Study1,M,18,42,Study,User,-,,Study/JOL,"Study Phase",7262,,,-1,-1,,,,0.75
M20223504BG,82iukoa9k8,"Mediated JOLs",1,41,2024-11-28T01:43:56+00:00,4.268404006958,1,versionA_stim.csv,ReadVersion.csv,Read,Read1,CARD,CREDIT,Study1,F,33,15,Study,User,-,,Study/JOL,"Study Phase",4202,,,-1,-1,,,,0.619
M20223504BG,82iukoa9k8,"Mediated JOLs",1,42,2024-11-28T01:44:01+00:00,5.0215361118317,1,versionA_stim.csv,ReadVersion.csv,Read,Read1,WORM,ROUGH,Study1,M,10,24,Study,User,-,,Study/JOL,"Study Phase",4958,,,-1,-1,,,,0.6
M20223504BG,82iukoa9k8,"Mediated JOLs",1,43,2024-11-28T01:44:06+00:00,4.6169829368591,1,versionA_stim.csv,ReadVersion.csv,Read,Read1,FLAG,LION,Study1,M,6,14,Study,User,-,,Study/JOL,"Study Phase",4550,,,-1,-1,,,,0.565
M20223504BG,82iukoa9k8,"Mediated JOLs",1,44,2024-11-28T01:44:10+00:00,4.3265790939331,1,versionA_stim.csv,ReadVersion.csv,Read,Read1,SENTENCE,WORD,Study1,F,27,31,Study,User,-,,Study/JOL,"Study Phase",4254,,,-1,-1,,,,0.619
M20223504BG,82iukoa9k8,"Mediated JOLs",1,45,2024-11-28T01:44:17+00:00,6.5145490169525,1,versionA_stim.csv,ReadVersion.csv,Read,Read1,TRASH,LITTER,Study1,F,21,28,Study,User,-,,Study/JOL,"Study Phase",6444,,,-1,-1,,,,0.688
M20223504BG,82iukoa9k8,"Mediated JOLs",1,46,2024-11-28T01:44:19+00:00,2.2315218448639,1,versionA_stim.csv,ReadVersion.csv,Read,Read1,DRINK,SIP,Study1,F,32,16,Study,User,-,,Study/JOL,"Study Phase",2167,,,-1,-1,,,,1
M20223504BG,82iukoa9k8,"Mediated JOLs",1,47,2024-11-28T01:44:23+00:00,3.9056911468506,1,versionA_stim.csv,ReadVersion.csv,Read,Read1,LOVE,AFFECTION,Study1,F,31,36,Study,User,-,,Study/JOL,"Study Phase",3839,,,-1,-1,,,,0.474
M20223504BG,82iukoa9k8,"Mediated JOLs",1,48,2024-11-28T01:44:37+00:00,13.970335960388,1,versionA_stim.csv,ReadVersion.csv,Read,Read1,BALL,HARD,Study1,M,20,8,Study,User,-,,Study/JOL,"Study Phase",13901,,,-1,-1,,,,0.464
M20223504BG,82iukoa9k8,"Mediated JOLs",1,49,2024-11-28T01:44:44+00:00,6.5762450695038,1,versionA_stim.csv,ReadVersion.csv,Read,Read1,COMB,TOOTH,Study1,M,19,25,Study,User,-,,Study/JOL,"Study Phase",6509,,,-1,-1,,,,0.594
M20223504BG,82iukoa9k8,"Mediated JOLs",1,50,2024-11-28T01:44:53+00:00,9.7601938247681,1,versionA_stim.csv,ReadVersion.csv,Read,Read1,MONEY,WAGE,Study1,F,22,32,Study,User,-,,Study/JOL,"Study Phase",9696,,,-1,-1,,,,0.729
M20223504BG,82iukoa9k8,"Mediated JOLs",1,51,2024-11-28T01:44:59+00:00,5.4591109752655,1,versionA_stim.csv,ReadVersion.csv,Read,Read1,MORNING,TEMPERATURE,Study1,U,48,40,Study,User,-,,Study/JOL,"Study Phase",5390,,,-1,-1,,,,0.519
M20223504BG,82iukoa9k8,"Mediated JOLs",1,52,2024-11-28T01:45:04+00:00,4.9887092113495,1,versionA_stim.csv,ReadVersion.csv,Read,Read1,DONKEY,MULE,Study1,F,30,37,Study,User,-,,Study/JOL,"Study Phase",4909,,,-1,-1,,,,0.5
M20223504BG,82iukoa9k8,"Mediated JOLs",1,53,2024-11-28T01:45:09+00:00,4.9138848781586,1,versionA_stim.csv,ReadVersion.csv,Read,Read1,TOOL,SHED,BUFFER3,Buffer,58,59,Study,User,-,,Study/JOL,BUFFER2,4842,,,-1,-1,,,,0.542
M20223504BG,82iukoa9k8,"Mediated JOLs",1,54,2024-11-28T01:45:14+00:00,5.1233661174774,1,versionA_stim.csv,ReadVersion.csv,Read,Read1,MONTH,YEAR,BUFFER3,Buffer,57,58,Study,User,-,,Study/JOL,BUFFER2,5055,,,-1,-1,,,,0.52
M20223504BG,82iukoa9k8,"Mediated JOLs",1,55,2024-11-28T01:45:19+00:00,5.461856842041,1,versionA_stim.csv,ReadVersion.csv,Read,Read1,MALT,CHOCOLATE,BUFFER2,Buffer,53,52,Study,User,-,,Study/JOL,BUFFER2,5394,,,-1,-1,,,,0.481
M20223504BG,82iukoa9k8,"Mediated JOLs",1,56,2024-11-28T01:45:25+00:00,5.7338840961456,1,versionA_stim.csv,ReadVersion.csv,Read,Read1,DAYS,WEEKS,BUFFER3,Buffer,56,57,Study,User,-,,Study/JOL,BUFFER2,5657,,,-1,-1,,,,0.536
M20223504BG,82iukoa9k8,"Mediated JOLs",1,57,2024-11-28T01:45:27+00:00,2.4884140491486,1,versionA_stim.csv,ReadVersion.csv,Read,Read1,SHRIMP,FISH,BUFFER4,Buffer,108,109,Study,User,-,,Study/JOL,BUFFER2,2427,,,-1,-1,,,,1
M20223504BG,82iukoa9k8,"Mediated JOLs",1,58,2024-11-28T01:45:30+00:00,2.6812279224396,1,versionA_stim.csv,ReadVersion.csv,Read,Read1,,,,,,0,Instruct,User,-,"You have completed this section. Please press Enter.",Filler_Instruction,Instruct2,2616,,,-1,-1,,,,1
M20223504BG,82iukoa9k8,"Mediated JOLs",1,59,2024-11-28T01:47:30+00:00,120.16499304771,1,versionA_stim.csv,ReadVersion.csv,Read,Read1,,,,,,0,FreeRecall,120,120,"Please list the 50 US states in alphabetical order. The task will automatically advance to the next screen after two minutes.",,Filler1,120001,"Alabama Alaska Arizona Arkansas California Colorado Connecticut Delaware Florida Georgia Hawaii Idaho Illinois ",0,57751,78098,0,0,,0.709
M20223504BG,82iukoa9k8,"Mediated JOLs",1,60,2024-11-28T01:49:52+00:00,141.33237886429,1,versionA_stim.csv,ReadVersion.csv,Read,Read1,,,,,,0,Instruct,-,10,"You will now be presented with the first word from each of the previously studied item pairs. Please type the missing word. If you do not know the word, you may guess or press Enter to skip forward to the next pair.",,Instruct3,141181,,,-1,-1,,,,0.054
M20223504BG,82iukoa9k8,"Mediated JOLs",1,61,2024-11-28T01:50:04+00:00,12.857634067535,1,versionA_stim.csv,ReadVersion.csv,Read,Read1,BELT,SOON,Study1,U,46,33,Test,User,-,,Recall,Recall1,12784,soon,100,12029,12489,1,1,,0.333
M20223504BG,82iukoa9k8,"Mediated JOLs",1,62,2024-11-28T01:50:05+00:00,0.3450779914856,1,versionA_stim.csv,ReadVersion.csv,Read,Read1,MAROON,MIRROR,Study1,U,36,7,Test,User,-,,Recall,Recall1,274,,0,-1,-1,0,0,,1
M20223504BG,82iukoa9k8,"Mediated JOLs",1,63,2024-11-28T01:50:06+00:00,1.5245609283447,1,versionA_stim.csv,ReadVersion.csv,Read,Read1,CLEAN,HYGIENE,Study1,F,28,18,Test,User,-,,Recall,Recall1,1456,,0,-1,-1,0,0,,1
M20223504BG,82iukoa9k8,"Mediated JOLs",1,64,2024-11-28T01:50:07+00:00,0.16699814796448,1,versionA_stim.csv,ReadVersion.csv,Read,Read1,SQUARE,BEACH,Study1,M,7,23,Test,User,-,,Recall,Recall1,102,,0,-1,-1,0,0,,1
M20223504BG,82iukoa9k8,"Mediated JOLs",1,65,2024-11-28T01:50:07+00:00,0.29179191589355,1,versionA_stim.csv,ReadVersion.csv,Read,Read1,BANG,FUZZY,Study1,U,50,43,Test,User,-,,Recall,Recall1,225,,0,-1,-1,0,0,,1
M20223504BG,82iukoa9k8,"Mediated JOLs",1,66,2024-11-28T01:50:07+00:00,0.1483850479126,1,versionA_stim.csv,ReadVersion.csv,Read,Read1,HEAD,SCALP,Study1,F,23,9,Test,User,-,,Recall,Recall1,84,,0,-1,-1,0,0,,1
M20223504BG,82iukoa9k8,"Mediated JOLs",1,67,2024-11-28T01:50:07+00:00,0.14614605903625,1,versionA_stim.csv,ReadVersion.csv,Read,Read1,PLANT,ROOT,Study1,F,25,35,Test,User,-,,Recall,Recall1,79,,0,-1,-1,0,0,,1
M20223504BG,82iukoa9k8,"Mediated JOLs",1,68,2024-11-28T01:50:07+00:00,0.27465796470642,1,versionA_stim.csv,ReadVersion.csv,Read,Read1,APPLE,BIRTHDAY,Study1,M,9,26,Test,User,-,,Recall,Recall1,208,,0,-1,-1,0,0,,1
M20223504BG,82iukoa9k8,"Mediated JOLs",1,69,2024-11-28T01:50:08+00:00,0.14787697792053,1,versionA_stim.csv,ReadVersion.csv,Read,Read1,RUG,CEILING,Study1,M,15,46,Test,User,-,,Recall,Recall1,79,,0,-1,-1,0,0,,1
M20223504BG,82iukoa9k8,"Mediated JOLs",1,70,2024-11-28T01:50:08+00:00,0.14767003059387,1,versionA_stim.csv,ReadVersion.csv,Read,Read1,FISH,TUNA,Study1,F,35,21,Test,User,-,,Recall,Recall1,82,,0,-1,-1,0,0,,1
M20223504BG,82iukoa9k8,"Mediated JOLs",1,71,2024-11-28T01:50:08+00:00,0.29339003562927,1,versionA_stim.csv,ReadVersion.csv,Read,Read1,SLEEP,NAP,Study1,F,29,27,Test,User,-,,Recall,Recall1,227,,0,-1,-1,0,0,,1
M20223504BG,82iukoa9k8,"Mediated JOLs",1,72,2024-11-28T01:50:08+00:00,0.1472499370575,1,versionA_stim.csv,ReadVersion.csv,Read,Read1,TICK,SIGN,Study1,U,47,29,Test,User,-,,Recall,Recall1,85,,0,-1,-1,0,0,,1
M20223504BG,82iukoa9k8,"Mediated JOLs",1,73,2024-11-28T01:50:08+00:00,0.29611086845398,1,versionA_stim.csv,ReadVersion.csv,Read,Read1,HAND,WEDDING,Study1,M,17,11,Test,User,-,,Recall,Recall1,230,,0,-1,-1,0,0,,1
M20223504BG,82iukoa9k8,"Mediated JOLs",1,74,2024-11-28T01:50:09+00:00,0.16333198547363,1,versionA_stim.csv,ReadVersion.csv,Read,Read1,PANCAKES,TREE,Study1,M,11,17,Test,User,-,,Recall,Recall1,97,,0,-1,-1,0,0,,1
M20223504BG,82iukoa9k8,"Mediated JOLs",1,75,2024-11-28T01:50:09+00:00,0.14538216590881,1,versionA_stim.csv,ReadVersion.csv,Read,Read1,DRINK,SIP,Study1,F,32,16,Test,User,-,,Recall,Recall1,78,,0,-1,-1,0,0,,1
M20223504BG,82iukoa9k8,"Mediated JOLs",1,76,2024-11-28T01:50:09+00:00,0.14666795730591,1,versionA_stim.csv,ReadVersion.csv,Read,Read1,WORM,ROUGH,Study1,M,10,24,Test,User,-,,Recall,Recall1,87,,0,-1,-1,0,0,,1
M20223504BG,82iukoa9k8,"Mediated JOLs",1,77,2024-11-28T01:50:09+00:00,0.1489679813385,1,versionA_stim.csv,ReadVersion.csv,Read,Read1,CLOTH,STRETCH,Study1,U,37,19,Test,User,-,,Recall,Recall1,86,,0,-1,-1,0,0,,1
M20223504BG,82iukoa9k8,"Mediated JOLs",1,78,2024-11-28T01:50:09+00:00,0.16250205039978,1,versionA_stim.csv,ReadVersion.csv,Read,Read1,FLAG,LION,Study1,M,6,14,Test,User,-,,Recall,Recall1,102,,0,-1,-1,0,0,,1
M20223504BG,82iukoa9k8,"Mediated JOLs",1,79,2024-11-28T01:50:18+00:00,9.0129928588867,1,versionA_stim.csv,ReadVersion.csv,Read,Read1,FLOWER,ORCHID,Study1,F,34,47,Test,User,-,,Recall,Recall1,8944,orchid,100,7786,8796,1,1,,0.409
M20223504BG,82iukoa9k8,"Mediated JOLs",1,80,2024-11-28T01:50:27+00:00,8.7225642204285,1,versionA_stim.csv,ReadVersion.csv,Read,Read1,HAND,CAKE,Study1,U,49,50,Test,User,-,,Recall,Recall1,8647,weddijng,16.666666666667,7123,8280,0,0,,0.512
M20223504BG,82iukoa9k8,"Mediated JOLs",1,81,2024-11-28T01:50:31+00:00,3.7430658340454,1,versionA_stim.csv,ReadVersion.csv,Read,Read1,PHONE,MAZE,Study1,U,42,51,Test,User,-,,Recall,Recall1,3669,number,40,2514,3559,0,0,,1
M20223504BG,82iukoa9k8,"Mediated JOLs",1,82,2024-11-28T01:51:06+00:00,35.198382139206,1,versionA_stim.csv,ReadVersion.csv,Read,Read1,BEER,CRY,Study1,M,16,49,Test,User,-,,Recall,Recall1,35128,,0,-1,-1,0,0,,0.14
M20223504BG,82iukoa9k8,"Mediated JOLs",1,83,2024-11-28T01:51:06+00:00,0.47609281539917,1,versionA_stim.csv,ReadVersion.csv,Read,Read1,BLACK,DAY,Study1,M,18,42,Test,User,-,,Recall,Recall1,405,,0,-1,-1,0,0,,1
M20223504BG,82iukoa9k8,"Mediated JOLs",1,84,2024-11-28T01:51:07+00:00,0.31181716918945,1,versionA_stim.csv,ReadVersion.csv,Read,Read1,COMB,TOOTH,Study1,M,19,25,Test,User,-,,Recall,Recall1,247,,0,-1,-1,0,0,,1
M20223504BG,82iukoa9k8,"Mediated JOLs",1,85,2024-11-28T01:51:07+00:00,0.44151997566223,1,versionA_stim.csv,ReadVersion.csv,Read,Read1,BALL,HARD,Study1,M,20,8,Test,User,-,,Recall,Recall1,374,,0,-1,-1,0,0,,1
M20223504BG,82iukoa9k8,"Mediated JOLs",1,86,2024-11-28T01:51:08+00:00,0.46002292633057,1,versionA_stim.csv,ReadVersion.csv,Read,Read1,BIRD,SWAN,Study1,F,26,30,Test,User,-,,Recall,Recall1,394,,0,-1,-1,0,0,,1
M20223504BG,82iukoa9k8,"Mediated JOLs",1,87,2024-11-28T01:51:08+00:00,0.32572293281555,1,versionA_stim.csv,ReadVersion.csv,Read,Read1,CHARM,VEHICLE,Study1,U,40,44,Test,User,-,,Recall,Recall1,259,,0,-1,-1,0,0,,1
M20223504BG,82iukoa9k8,"Mediated JOLs",1,88,2024-11-28T01:51:08+00:00,0.31112813949585,1,versionA_stim.csv,ReadVersion.csv,Read,Read1,CARD,CREDIT,Study1,F,33,15,Test,User,-,,Recall,Recall1,245,,0,-1,-1,0,0,,1
M20223504BG,82iukoa9k8,"Mediated JOLs",1,89,2024-11-28T01:51:08+00:00,0.28920483589172,1,versionA_stim.csv,ReadVersion.csv,Read,Read1,STEAK,GIVE,Study1,U,38,13,Test,User,-,,Recall,Recall1,227,,0,-1,-1,0,0,,1
M20223504BG,82iukoa9k8,"Mediated JOLs",1,90,2024-11-28T01:51:09+00:00,0.31515002250671,1,versionA_stim.csv,ReadVersion.csv,Read,Read1,DONKEY,MULE,Study1,F,24,45,Test,User,-,,Recall,Recall1,249,,0,-1,-1,0,0,,1
M20223504BG,82iukoa9k8,"Mediated JOLs",1,91,2024-11-28T01:51:09+00:00,0.24723720550537,1,versionA_stim.csv,ReadVersion.csv,Read,Read1,ELECTION,CRACKLE,Study1,U,39,20,Test,User,-,,Recall,Recall1,184,,0,-1,-1,0,0,,1
M20223504BG,82iukoa9k8,"Mediated JOLs",1,92,2024-11-28T01:51:10+00:00,0.67352700233459,1,versionA_stim.csv,ReadVersion.csv,Read,Read1,MORNING,TEMPERATURE,Study1,U,48,40,Test,User,-,,Recall,Recall1,606,,0,-1,-1,0,0,,1
M20223504BG,82iukoa9k8,"Mediated JOLs",1,93,2024-11-28T01:51:10+00:00,0.25624585151672,1,versionA_stim.csv,ReadVersion.csv,Read,Read1,LOVE,AFFECTION,Study1,F,31,36,Test,User,-,,Recall,Recall1,194,,0,-1,-1,0,0,,1
M20223504BG,82iukoa9k8,"Mediated JOLs",1,94,2024-11-28T01:51:10+00:00,0.2022750377655,1,versionA_stim.csv,ReadVersion.csv,Read,Read1,FICTION,LISTEN,Study1,U,44,12,Test,User,-,,Recall,Recall1,139,,0,-1,-1,0,0,,1
M20223504BG,82iukoa9k8,"Mediated JOLs",1,95,2024-11-28T01:51:10+00:00,0.18406295776367,1,versionA_stim.csv,ReadVersion.csv,Read,Read1,LOUD,WAR,Study1,M,8,48,Test,User,-,,Recall,Recall1,118,,0,-1,-1,0,0,,1
M20223504BG,82iukoa9k8,"Mediated JOLs",1,96,2024-11-28T01:51:11+00:00,0.18388915061951,1,versionA_stim.csv,ReadVersion.csv,Read,Read1,MONEY,WAGE,Study1,F,22,32,Test,User,-,,Recall,Recall1,118,,0,-1,-1,0,0,,1
M20223504BG,82iukoa9k8,"Mediated JOLs",1,97,2024-11-28T01:51:11+00:00,0.14626097679138,1,versionA_stim.csv,ReadVersion.csv,Read,Read1,FUN,CIRCLE,Study1,M,13,34,Test,User,-,,Recall,Recall1,80,,0,-1,-1,0,0,,1
M20223504BG,82iukoa9k8,"Mediated JOLs",1,98,2024-11-28T01:51:11+00:00,0.14567184448242,1,versionA_stim.csv,ReadVersion.csv,Read,Read1,TRASH,LITTER,Study1,F,21,28,Test,User,-,,Recall,Recall1,83,,0,-1,-1,0,0,,1
M20223504BG,82iukoa9k8,"Mediated JOLs",1,99,2024-11-28T01:51:11+00:00,0.16699314117432,1,versionA_stim.csv,ReadVersion.csv,Read,Read1,SENTENCE,WORD,Study1,F,27,31,Test,User,-,,Recall,Recall1,99,,0,-1,-1,0,0,,1
M20223504BG,82iukoa9k8,"Mediated JOLs",1,100,2024-11-28T01:51:11+00:00,0.14700794219971,1,versionA_stim.csv,ReadVersion.csv,Read,Read1,ROD,KEYS,Study1,U,45,38,Test,User,-,,Recall,Recall1,82,,0,-1,-1,0,0,,1
M20223504BG,82iukoa9k8,"Mediated JOLs",1,101,2024-11-28T01:51:11+00:00,0.14784288406372,1,versionA_stim.csv,ReadVersion.csv,Read,Read1,DONKEY,MULE,Study1,F,30,37,Test,User,-,,Recall,Recall1,83,,0,-1,-1,0,0,,1
M20223504BG,82iukoa9k8,"Mediated JOLs",1,102,2024-11-28T01:51:11+00:00,0.1637442111969,1,versionA_stim.csv,ReadVersion.csv,Read,Read1,TIRE,HORSE,Study1,M,14,10,Test,User,-,,Recall,Recall1,95,,0,-1,-1,0,0,,1
M20223504BG,82iukoa9k8,"Mediated JOLs",1,103,2024-11-28T01:51:12+00:00,0.14451885223389,1,versionA_stim.csv,ReadVersion.csv,Read,Read1,SHAKE,SHELL,Study1,U,43,39,Test,User,-,,Recall,Recall1,82,,0,-1,-1,0,0,,1
M20223504BG,82iukoa9k8,"Mediated JOLs",1,104,2024-11-28T01:51:12+00:00,0.15066313743591,1,versionA_stim.csv,ReadVersion.csv,Read,Read1,KEYS,MEAT,Study1,U,41,22,Test,User,-,,Recall,Recall1,87,,0,-1,-1,0,0,,1
M20223504BG,82iukoa9k8,"Mediated JOLs",1,105,2024-11-28T01:51:12+00:00,0.14744281768799,1,versionA_stim.csv,ReadVersion.csv,Read,Read1,JUMP,BAT,Study1,M,12,41,Test,User,-,,Recall,Recall1,82,,0,-1,-1,0,0,,1
M20223504BG,82iukoa9k8,"Mediated JOLs",1,106,2024-11-28T01:51:24+00:00,11.986641168594,1,versionA_stim.csv,ReadVersion.csv,Read,Read1,,,,,,0,Instruct,-,10,"You will now be presented with a new set of word pairs. Please study each pair. Remember that your memory will be tested! When finished, press Enter to move to the next pair.",Initial_Instruct,Instruct4,11919,,,-1,-1,,,,1
M20223504BG,82iukoa9k8,"Mediated JOLs",1,107,2024-11-28T01:51:35+00:00,11.548744916916,1,versionA_stim.csv,ReadVersion.csv,Read,Read1,,,,,,0,Instruct,User,-,"Press Enter when you are readty to begin",,Instruct11,11478,,,-1,-1,,,,0.714
M20223504BG,82iukoa9k8,"Mediated JOLs",1,108,2024-11-28T02:00:13+00:00,517.90676188469,1,versionA_stim.csv,ReadVersion.csv,Read,Read1,THING,STUFF,BUFFER2,Buffer,55,53,Study,User,-,,Study/JOL,BUFFER2,517746,,,-1,-1,,,,0.033
M20223504BG,82iukoa9k8,"Mediated JOLs",1,109,2024-11-28T02:00:14+00:00,0.4965832233429,1,versionA_stim.csv,ReadVersion.csv,Read,Read1,SHERRIF,POLICE,BUFFER2,Buffer,52,55,Study,User,-,,Study/JOL,BUFFER2,403,,,-1,-1,,,,1
M20223504BG,82iukoa9k8,"Mediated JOLs",1,110,2024-11-28T02:00:14+00:00,0.35780382156372,1,versionA_stim.csv,ReadVersion.csv,Read,Read1,ICE,FROZEN,BUFFER4,Buffer,109,111,Study,User,-,,Study/JOL,BUFFER2,290,,,-1,-1,,,,1
M20223504BG,82iukoa9k8,"Mediated JOLs",1,111,2024-11-28T02:00:14+00:00,0.29272794723511,1,versionA_stim.csv,ReadVersion.csv,Read,Read1,OCTOBER,SPOOKY,BUFFER3,Buffer,60,61,Study,User,-,,Study/JOL,BUFFER2,222,,,-1,-1,,,,1
M20223504BG,82iukoa9k8,"Mediated JOLs",1,112,2024-11-28T02:00:15+00:00,0.29078412055969,1,versionA_stim.csv,ReadVersion.csv,Read,Read1,SPRING,MARCH,BUFFER3,Buffer,59,60,Study,User,-,,Study/JOL,BUFFER2,222,,,-1,-1,,,,1
M20223504BG,82iukoa9k8,"Mediated JOLs",1,113,2024-11-28T02:00:15+00:00,0.29850602149963,1,versionA_stim.csv,ReadVersion.csv,Read,Read1,CHILL,COLD,Study2,F,87,80,Study,User,-,,Study/JOL,"Study Phase2",233,,,-1,-1,,,,1
M20223504BG,82iukoa9k8,"Mediated JOLs",1,114,2024-11-28T02:00:15+00:00,0.28874897956848,1,versionA_stim.csv,ReadVersion.csv,Read,Read1,FEUD,FIGHT,Study2,F,86,87,Study,User,-,,Study/JOL,"Study Phase2",226,,,-1,-1,,,,1
M20223504BG,82iukoa9k8,"Mediated JOLs",1,115,2024-11-28T02:00:16+00:00,0.30532288551331,1,versionA_stim.csv,ReadVersion.csv,Read,Read1,SOAP,THIRST,Study2,M,67,77,Study,User,-,,Study/JOL,"Study Phase2",235,,,-1,-1,,,,1
M20223504BG,82iukoa9k8,"Mediated JOLs",1,116,2024-11-28T02:00:16+00:00,0.27426099777222,1,versionA_stim.csv,ReadVersion.csv,Read,Read1,INCENSE,SMELL,Study2,F,83,83,Study,User,-,,Study/JOL,"Study Phase2",210,,,-1,-1,,,,1
M20223504BG,82iukoa9k8,"Mediated JOLs",1,117,2024-11-28T02:00:16+00:00,0.49073600769043,1,versionA_stim.csv,ReadVersion.csv,Read,Read1,SUGAR,RIDDLE,Study2,U,95,70,Study,User,-,,Study/JOL,"Study Phase2",423,,,-1,-1,,,,1
M20223504BG,82iukoa9k8,"Mediated JOLs",1,118,2024-11-28T02:00:17+00:00,0.20329713821411,1,versionA_stim.csv,ReadVersion.csv,Read,Read1,ART,WOLF,Study2,U,93,98,Study,User,-,,Study/JOL,"Study Phase2",133,,,-1,-1,,,,1
M20223504BG,82iukoa9k8,"Mediated JOLs",1,119,2024-11-28T02:00:17+00:00,0.1645040512085,1,versionA_stim.csv,ReadVersion.csv,Read,Read1,PUSH,CLUTTER,Study2,U,96,88,Study,User,-,,Study/JOL,"Study Phase2",97,,,-1,-1,,,,1
M20223504BG,82iukoa9k8,"Mediated JOLs",1,120,2024-11-28T02:00:17+00:00,0.147873878479,1,versionA_stim.csv,ReadVersion.csv,Read,Read1,CACTUS,PLANT,Study2,F,76,79,Study,User,-,,Study/JOL,"Study Phase2",82,,,-1,-1,,,,1
M20223504BG,82iukoa9k8,"Mediated JOLs",1,121,2024-11-28T02:00:17+00:00,0.14607501029968,1,versionA_stim.csv,ReadVersion.csv,Read,Read1,WINDOW,HANDLE,Study2,M,74,103,Study,User,-,,Study/JOL,"Study Phase2",80,,,-1,-1,,,,1
M20223504BG,82iukoa9k8,"Mediated JOLs",1,122,2024-11-28T02:00:17+00:00,0.27542495727539,1,versionA_stim.csv,ReadVersion.csv,Read,Read1,LEASE,TOIL,Study2,U,101,78,Study,User,-,,Study/JOL,"Study Phase2",206,,,-1,-1,,,,1
M20223504BG,82iukoa9k8,"Mediated JOLs",1,123,2024-11-28T02:00:18+00:00,0.14643812179565,1,versionA_stim.csv,ReadVersion.csv,Read,Read1,ARTERY,BRONZE,Study2,U,103,75,Study,User,-,,Study/JOL,"Study Phase2",82,,,-1,-1,,,,1
M20223504BG,82iukoa9k8,"Mediated JOLs",1,124,2024-11-28T02:00:18+00:00,0.1631908416748,1,versionA_stim.csv,ReadVersion.csv,Read,Read1,SCHOOL,SIGN,Study2,M,62,76,Study,User,-,,Study/JOL,"Study Phase2",101,,,-1,-1,,,,1
M20223504BG,82iukoa9k8,"Mediated JOLs",1,125,2024-11-28T02:00:18+00:00,0.14985203742981,1,versionA_stim.csv,ReadVersion.csv,Read,Read1,CHOP,CUT,Study2,F,77,106,Study,User,-,,Study/JOL,"Study Phase2",83,,,-1,-1,,,,1
M20223504BG,82iukoa9k8,"Mediated JOLs",1,126,2024-11-28T02:00:18+00:00,0.29324507713318,1,versionA_stim.csv,ReadVersion.csv,Read,Read1,REALITY,WATER,Study2,M,64,85,Study,User,-,,Study/JOL,"Study Phase2",231,,,-1,-1,,,,1
M20223504BG,82iukoa9k8,"Mediated JOLs",1,127,2024-11-28T02:00:18+00:00,0.14793109893799,1,versionA_stim.csv,ReadVersion.csv,Read,Read1,MIRROR,CHILDREN,Study2,U,104,105,Study,User,-,,Study/JOL,"Study Phase2",80,,,-1,-1,,,,1
M20223504BG,82iukoa9k8,"Mediated JOLs",1,128,2024-11-28T02:00:18+00:00,0.14397382736206,1,versionA_stim.csv,ReadVersion.csv,Read,Read1,KING,VASE,Study2,U,91,71,Study,User,-,,Study/JOL,"Study Phase2",83,,,-1,-1,,,,1
M20223504BG,82iukoa9k8,"Mediated JOLs",1,129,2024-11-28T02:00:19+00:00,0.17195796966553,1,versionA_stim.csv,ReadVersion.csv,Read,Read1,SICK,HIDE,Study2,U,100,69,Study,User,-,,Study/JOL,"Study Phase2",104,,,-1,-1,,,,1
M20223504BG,82iukoa9k8,"Mediated JOLs",1,130,2024-11-28T02:00:19+00:00,0.1400191783905,1,versionA_stim.csv,ReadVersion.csv,Read,Read1,HORNET,STING,Study2,F,85,90,Study,User,-,,Study/JOL,"Study Phase2",77,,,-1,-1,,,,1
M20223504BG,82iukoa9k8,"Mediated JOLs",1,131,2024-11-28T02:00:19+00:00,0.16646885871887,1,versionA_stim.csv,ReadVersion.csv,Read,Read1,CASH,LEG,Study2,U,105,94,Study,User,-,,Study/JOL,"Study Phase2",105,,,-1,-1,,,,1
M20223504BG,82iukoa9k8,"Mediated JOLs",1,132,2024-11-28T02:00:19+00:00,0.29552006721497,1,versionA_stim.csv,ReadVersion.csv,Read,Read1,DOCUMENT,PAPER,Study2,F,82,65,Study,User,-,,Study/JOL,"Study Phase2",231,,,-1,-1,,,,1
M20223504BG,82iukoa9k8,"Mediated JOLs",1,133,2024-11-28T02:00:26+00:00,7.2534079551697,1,versionA_stim.csv,ReadVersion.csv,Read,Read1,CHISEL,HAMMER,Study2,F,78,62,Study,User,-,,Study/JOL,"Study Phase2",7186,,,-1,-1,,,,0.278
M20223504BG,82iukoa9k8,"Mediated JOLs",1,134,2024-11-28T02:00:27+00:00,0.14627909660339,1,versionA_stim.csv,ReadVersion.csv,Read,Read1,BRIDGE,WATER,Study2,F,90,84,Study,User,-,,Study/JOL,"Study Phase2",86,,,-1,-1,,,,1
M20223504BG,82iukoa9k8,"Mediated JOLs",1,135,2024-11-28T02:00:27+00:00,0.1464478969574,1,versionA_stim.csv,ReadVersion.csv,Read,Read1,OVEN,WEAVE,Study2,M,71,66,Study,User,-,,Study/JOL,"Study Phase2",84,,,-1,-1,,,,1
M20223504BG,82iukoa9k8,"Mediated JOLs",1,136,2024-11-28T02:00:27+00:00,0.14908313751221,1,versionA_stim.csv,ReadVersion.csv,Read,Read1,WASP,BUG,Study2,F,89,96,Study,User,-,,Study/JOL,"Study Phase2",83,,,-1,-1,,,,1
M20223504BG,82iukoa9k8,"Mediated JOLs",1,137,2024-11-28T02:00:27+00:00,0.16646194458008,1,versionA_stim.csv,ReadVersion.csv,Read,Read1,EYES,TASTE,Study2,M,65,74,Study,User,-,,Study/JOL,"Study Phase2",100,,,-1,-1,,,,1
M20223504BG,82iukoa9k8,"Mediated JOLs",1,138,2024-11-28T02:00:27+00:00,0.25318002700806,1,versionA_stim.csv,ReadVersion.csv,Read,Read1,VALLEY,TOP,Study2,M,73,104,Study,User,-,,Study/JOL,"Study Phase2",191,,,-1,-1,,,,1
M20223504BG,82iukoa9k8,"Mediated JOLs",1,139,2024-11-28T02:00:27+00:00,0.15158987045288,1,versionA_stim.csv,ReadVersion.csv,Read,Read1,BENCH,HORN,Study2,U,98,64,Study,User,-,,Study/JOL,"Study Phase2",84,,,-1,-1,,,,1
M20223504BG,82iukoa9k8,"Mediated JOLs",1,140,2024-11-28T02:00:28+00:00,0.14461016654968,1,versionA_stim.csv,ReadVersion.csv,Read,Read1,ATTIRE,CLOTHES,Study2,F,79,68,Study,User,-,,Study/JOL,"Study Phase2",67,,,-1,-1,,,,1
M20223504BG,82iukoa9k8,"Mediated JOLs",1,141,2024-11-28T02:00:28+00:00,0.16603493690491,1,versionA_stim.csv,ReadVersion.csv,Read,Read1,NURSE,COURT,Study2,M,66,63,Study,User,-,,Study/JOL,"Study Phase2",95,,,-1,-1,,,,1
M20223504BG,82iukoa9k8,"Mediated JOLs",1,142,2024-11-28T02:00:28+00:00,0.14609503746033,1,versionA_stim.csv,ReadVersion.csv,Read,Read1,BOTH,OUNCE,Study2,U,102,82,Study,User,-,,Study/JOL,"Study Phase2",82,,,-1,-1,,,,1
M20223504BG,82iukoa9k8,"Mediated JOLs",1,143,2024-11-28T02:00:28+00:00,0.14672303199768,1,versionA_stim.csv,ReadVersion.csv,Read,Read1,DIETARY,SACK,Study2,U,97,92,Study,User,-,,Study/JOL,"Study Phase2",85,,,-1,-1,,,,1
M20223504BG,82iukoa9k8,"Mediated JOLs",1,144,2024-11-28T02:00:28+00:00,0.14711689949036,1,versionA_stim.csv,ReadVersion.csv,Read,Read1,LEAGUE,BASEBALL,Study2,F,84,91,Study,User,-,,Study/JOL,"Study Phase2",84,,,-1,-1,,,,1
M20223504BG,82iukoa9k8,"Mediated JOLs",1,145,2024-11-28T02:00:28+00:00,0.16578197479248,1,versionA_stim.csv,ReadVersion.csv,Read,Read1,RAKE,PLANT,Study2,M,69,93,Study,User,-,,Study/JOL,"Study Phase2",103,,,-1,-1,,,,1
M20223504BG,82iukoa9k8,"Mediated JOLs",1,146,2024-11-28T02:00:29+00:00,0.29382395744324,1,versionA_stim.csv,ReadVersion.csv,Read,Read1,GRILL,LEG,Study2,M,72,67,Study,User,-,,Study/JOL,"Study Phase2",230,,,-1,-1,,,,1
M20223504BG,82iukoa9k8,"Mediated JOLs",1,147,2024-11-28T02:00:29+00:00,0.14525103569031,1,versionA_stim.csv,ReadVersion.csv,Read,Read1,HEAVY,BIRD,Study2,M,68,100,Study,User,-,,Study/JOL,"Study Phase2",85,,,-1,-1,,,,1
M20223504BG,82iukoa9k8,"Mediated JOLs",1,148,2024-11-28T02:00:29+00:00,0.14964699745178,1,versionA_stim.csv,ReadVersion.csv,Read,Read1,RAZOR,ARM,Study2,M,75,99,Study,User,-,,Study/JOL,"Study Phase2",87,,,-1,-1,,,,1
M20223504BG,82iukoa9k8,"Mediated JOLs",1,149,2024-11-28T02:00:29+00:00,0.16469597816467,1,versionA_stim.csv,ReadVersion.csv,Read,Read1,STRONG,ACCIDENT,Study2,U,94,95,Study,User,-,,Study/JOL,"Study Phase2",102,,,-1,-1,,,,1
M20223504BG,82iukoa9k8,"Mediated JOLs",1,150,2024-11-28T02:00:29+00:00,0.14711809158325,1,versionA_stim.csv,ReadVersion.csv,Read,Read1,HAPPY,CAR,Study2,U,92,73,Study,User,-,,Study/JOL,"Study Phase2",84,,,-1,-1,,,,1
M20223504BG,82iukoa9k8,"Mediated JOLs",1,151,2024-11-28T02:00:29+00:00,0.16336989402771,1,versionA_stim.csv,ReadVersion.csv,Read,Read1,PANTS,DOG,Study2,M,63,81,Study,User,-,,Study/JOL,"Study Phase2",102,,,-1,-1,,,,1
M20223504BG,82iukoa9k8,"Mediated JOLs",1,152,2024-11-28T02:00:30+00:00,0.29636096954346,1,versionA_stim.csv,ReadVersion.csv,Read,Read1,DEATH,BUSINESS,Study2,U,99,89,Study,User,-,,Study/JOL,"Study Phase2",235,,,-1,-1,,,,1
M20223504BG,82iukoa9k8,"Mediated JOLs",1,153,2024-11-28T02:00:30+00:00,0.1654109954834,1,versionA_stim.csv,ReadVersion.csv,Read,Read1,BLAZE,FIRE,Study2,F,81,102,Study,User,-,,Study/JOL,"Study Phase2",103,,,-1,-1,,,,1
M20223504BG,82iukoa9k8,"Mediated JOLs",1,154,2024-11-28T02:00:30+00:00,0.14646410942078,1,versionA_stim.csv,ReadVersion.csv,Read,Read1,HERD,COW,Study2,F,88,86,Study,User,-,,Study/JOL,"Study Phase2",81,,,-1,-1,,,,1
M20223504BG,82iukoa9k8,"Mediated JOLs",1,155,2024-11-28T02:00:30+00:00,0.1469259262085,1,versionA_stim.csv,ReadVersion.csv,Read,Read1,CHERRY,RED,Study2,F,80,101,Study,User,-,,Study/JOL,"Study Phase2",84,,,-1,-1,,,,1
M20223504BG,82iukoa9k8,"Mediated JOLs",1,156,2024-11-28T02:00:30+00:00,0.1657919883728,1,versionA_stim.csv,ReadVersion.csv,Read,Read1,SUMMER,WHITE,Study2,M,61,72,Study,User,-,,Study/JOL,"Study Phase2",105,,,-1,-1,,,,1
M20223504BG,82iukoa9k8,"Mediated JOLs",1,157,2024-11-28T02:00:31+00:00,0.16587114334106,1,versionA_stim.csv,ReadVersion.csv,Read,Read1,TRAP,MAN,Study2,M,70,97,Study,User,-,,Study/JOL,"Study Phase2",94,,,-1,-1,,,,1
M20223504BG,82iukoa9k8,"Mediated JOLs",1,158,2024-11-28T02:00:31+00:00,0.16033101081848,1,versionA_stim.csv,ReadVersion.csv,Read,Read1,CARROT,POTATO,BUFFER4,Buffer,106,110,Study,User,-,,Study/JOL,BUFFER2,84,,,-1,-1,,,,1
M20223504BG,82iukoa9k8,"Mediated JOLs",1,159,2024-11-28T02:00:31+00:00,0.29806184768677,1,versionA_stim.csv,ReadVersion.csv,Read,Read1,GEESE,GOOSE,BUFFER2,Buffer,51,54,Study,User,-,,Study/JOL,BUFFER2,232,,,-1,-1,,,,1
M20223504BG,82iukoa9k8,"Mediated JOLs",1,160,2024-11-28T02:00:31+00:00,0.16651511192322,1,versionA_stim.csv,ReadVersion.csv,Read,Read1,MOON,SPACE,BUFFER2,Buffer,54,56,Study,User,-,,Study/JOL,BUFFER2,100,,,-1,-1,,,,1
M20223504BG,82iukoa9k8,"Mediated JOLs",1,161,2024-11-28T02:00:31+00:00,0.16388893127441,1,versionA_stim.csv,ReadVersion.csv,Read,Read1,NOODLE,STRING,BUFFER4,Buffer,107,108,Study,User,-,,Study/JOL,BUFFER2,103,,,-1,-1,,,,1
M20223504BG,82iukoa9k8,"Mediated JOLs",1,162,2024-11-28T02:00:31+00:00,0.14672207832336,1,versionA_stim.csv,ReadVersion.csv,Read,Read1,CAMP,ADVENTURE,BUFFER4,Buffer,110,107,Study,User,-,,Study/JOL,BUFFER2,82,,,-1,-1,,,,1
M20223504BG,82iukoa9k8,"Mediated JOLs",1,163,2024-11-28T02:00:32+00:00,0.17408800125122,1,versionA_stim.csv,ReadVersion.csv,Read,Read1,,,,,,0,Instruct,User,-,"You have completed this section. Please press Enter.",Filler_Instruction,Instruct2,96,,,-1,-1,,,,1
M20223504BG,82iukoa9k8,"Mediated JOLs",1,164,2024-11-28T02:02:32+00:00,120.14763998985,1,versionA_stim.csv,ReadVersion.csv,Read,Read1,,,,,,0,FreeRecall,120,120,"Please list the 50 US states in alphabetical order. The task will automatically advance to the next screen after two minutes.",,Filler1,120011," ",0,-1,-1,0,0,,0.282
M20223504BG,82iukoa9k8,"Mediated JOLs",1,165,2024-11-28T02:04:24+00:00,112.32554388046,1,versionA_stim.csv,ReadVersion.csv,Read,Read1,,,,,,0,Instruct,-,10,"You will now be presented with the first word from each of the previously studied item pairs. Please type the missing word. If you do not know the word, you may guess or press Enter to skip forward to the next pair.",,Instruct3,112186,,,-1,-1,,,,0.013
M20223504BG,82iukoa9k8,"Mediated JOLs",1,166,2024-11-28T02:04:25+00:00,0.90275001525879,1,versionA_stim.csv,ReadVersion.csv,Read,Read1,RAKE,PLANT,Study2,M,69,93,Test,User,-,,Recall,Recall2,829,,0,-1,-1,0,0,,1
M20223504BG,82iukoa9k8,"Mediated JOLs",1,167,2024-11-28T02:04:25+00:00,0.39049506187439,1,versionA_stim.csv,ReadVersion.csv,Read,Read1,GRILL,LEG,Study2,M,72,67,Test,User,-,,Recall,Recall2,318,,0,-1,-1,0,0,,1
M20223504BG,82iukoa9k8,"Mediated JOLs",1,168,2024-11-28T02:04:26+00:00,0.29759407043457,1,versionA_stim.csv,ReadVersion.csv,Read,Read1,LEAGUE,BASEBALL,Study2,F,84,91,Test,User,-,,Recall,Recall2,224,,0,-1,-1,0,0,,1
M20223504BG,82iukoa9k8,"Mediated JOLs",1,169,2024-11-28T02:04:26+00:00,0.3117299079895,1,versionA_stim.csv,ReadVersion.csv,Read,Read1,CASH,LEG,Study2,U,105,94,Test,User,-,,Recall,Recall2,243,,0,-1,-1,0,0,,1
M20223504BG,82iukoa9k8,"Mediated JOLs",1,170,2024-11-28T02:04:26+00:00,0.32311105728149,1,versionA_stim.csv,ReadVersion.csv,Read,Read1,HEAVY,BIRD,Study2,M,68,100,Test,User,-,,Recall,Recall2,253,,0,-1,-1,0,0,,1
M20223504BG,82iukoa9k8,"Mediated JOLs",1,171,2024-11-28T02:04:27+00:00,0.31512188911438,1,versionA_stim.csv,ReadVersion.csv,Read,Read1,LEASE,TOIL,Study2,U,101,78,Test,User,-,,Recall,Recall2,249,,0,-1,-1,0,0,,1
M20223504BG,82iukoa9k8,"Mediated JOLs",1,172,2024-11-28T02:04:27+00:00,0.32352614402771,1,versionA_stim.csv,ReadVersion.csv,Read,Read1,WINDOW,HANDLE,Study2,M,74,103,Test,User,-,,Recall,Recall2,257,,0,-1,-1,0,0,,1
M20223504BG,82iukoa9k8,"Mediated JOLs",1,173,2024-11-28T02:04:27+00:00,0.32501482963562,1,versionA_stim.csv,ReadVersion.csv,Read,Read1,PANTS,DOG,Study2,M,63,81,Test,User,-,,Recall,Recall2,254,,0,-1,-1,0,0,,1
M20223504BG,82iukoa9k8,"Mediated JOLs",1,174,2024-11-28T02:04:28+00:00,0.3454270362854,1,versionA_stim.csv,ReadVersion.csv,Read,Read1,SUGAR,RIDDLE,Study2,U,95,70,Test,User,-,,Recall,Recall2,277,,0,-1,-1,0,0,,1
M20223504BG,82iukoa9k8,"Mediated JOLs",1,175,2024-11-28T02:04:28+00:00,0.3480761051178,1,versionA_stim.csv,ReadVersion.csv,Read,Read1,FEUD,FIGHT,Study2,F,86,87,Test,User,-,,Recall,Recall2,281,,0,-1,-1,0,0,,1
M20223504BG,82iukoa9k8,"Mediated JOLs",1,176,2024-11-28T02:04:28+00:00,0.33821797370911,1,versionA_stim.csv,ReadVersion.csv,Read,Read1,DOCUMENT,PAPER,Study2,F,82,65,Test,User,-,,Recall,Recall2,267,,0,-1,-1,0,0,,1
M20223504BG,82iukoa9k8,"Mediated JOLs",1,177,2024-11-28T02:04:29+00:00,1.1534478664398,1,versionA_stim.csv,ReadVersion.csv,Read,Read1,BENCH,HORN,Study2,U,98,64,Test,User,-,,Recall,Recall2,1086,,0,-1,-1,0,0,,1
M20223504BG,82iukoa9k8,"Mediated JOLs",1,178,2024-11-28T02:04:30+00:00,0.18455719947815,1,versionA_stim.csv,ReadVersion.csv,Read,Read1,STRONG,ACCIDENT,Study2,U,94,95,Test,User,-,,Recall,Recall2,115,,0,-1,-1,0,0,,1
M20223504BG,82iukoa9k8,"Mediated JOLs",1,179,2024-11-28T02:04:30+00:00,0.18396282196045,1,versionA_stim.csv,ReadVersion.csv,Read,Read1,SCHOOL,SIGN,Study2,M,62,76,Test,User,-,,Recall,Recall2,116,,0,-1,-1,0,0,,1
M20223504BG,82iukoa9k8,"Mediated JOLs",1,180,2024-11-28T02:04:30+00:00,0.14612913131714,1,versionA_stim.csv,ReadVersion.csv,Read,Read1,DEATH,BUSINESS,Study2,U,99,89,Test,User,-,,Recall,Recall2,76,,0,-1,-1,0,0,,1
M20223504BG,82iukoa9k8,"Mediated JOLs",1,181,2024-11-28T02:04:30+00:00,0.14571905136108,1,versionA_stim.csv,ReadVersion.csv,Read,Read1,SUMMER,WHITE,Study2,M,61,72,Test,User,-,,Recall,Recall2,80,,0,-1,-1,0,0,,1
M20223504BG,82iukoa9k8,"Mediated JOLs",1,182,2024-11-28T02:04:30+00:00,0.14747595787048,1,versionA_stim.csv,ReadVersion.csv,Read,Read1,BRIDGE,WATER,Study2,F,90,84,Test,User,-,,Recall,Recall2,81,,0,-1,-1,0,0,,1
M20223504BG,82iukoa9k8,"Mediated JOLs",1,183,2024-11-28T02:04:31+00:00,0.29413986206055,1,versionA_stim.csv,ReadVersion.csv,Read,Read1,REALITY,WATER,Study2,M,64,85,Test,User,-,,Recall,Recall2,228,,0,-1,-1,0,0,,1
M20223504BG,82iukoa9k8,"Mediated JOLs",1,184,2024-11-28T02:04:31+00:00,0.14596199989319,1,versionA_stim.csv,ReadVersion.csv,Read,Read1,ART,WOLF,Study2,U,93,98,Test,User,-,,Recall,Recall2,84,,0,-1,-1,0,0,,1
M20223504BG,82iukoa9k8,"Mediated JOLs",1,185,2024-11-28T02:04:31+00:00,0.16705703735352,1,versionA_stim.csv,ReadVersion.csv,Read,Read1,PUSH,CLUTTER,Study2,U,96,88,Test,User,-,,Recall,Recall2,101,,0,-1,-1,0,0,,1
M20223504BG,82iukoa9k8,"Mediated JOLs",1,186,2024-11-28T02:04:31+00:00,0.27400302886963,1,versionA_stim.csv,ReadVersion.csv,Read,Read1,TRAP,MAN,Study2,M,70,97,Test,User,-,,Recall,Recall2,205,,0,-1,-1,0,0,,1
M20223504BG,82iukoa9k8,"Mediated JOLs",1,187,2024-11-28T02:04:31+00:00,0.14754199981689,1,versionA_stim.csv,ReadVersion.csv,Read,Read1,ATTIRE,CLOTHES,Study2,F,79,68,Test,User,-,,Recall,Recall2,83,,0,-1,-1,0,0,,1
M20223504BG,82iukoa9k8,"Mediated JOLs",1,188,2024-11-28T02:04:31+00:00,0.16499400138855,1,versionA_stim.csv,ReadVersion.csv,Read,Read1,CHISEL,HAMMER,Study2,F,78,62,Test,User,-,,Recall,Recall2,100,,0,-1,-1,0,0,,1
M20223504BG,82iukoa9k8,"Mediated JOLs",1,189,2024-11-28T02:04:32+00:00,0.14672207832336,1,versionA_stim.csv,ReadVersion.csv,Read,Read1,DIETARY,SACK,Study2,U,97,92,Test,User,-,,Recall,Recall2,74,,0,-1,-1,0,0,,1
M20223504BG,82iukoa9k8,"Mediated JOLs",1,190,2024-11-28T02:04:32+00:00,0.14858102798462,1,versionA_stim.csv,ReadVersion.csv,Read,Read1,MIRROR,CHILDREN,Study2,U,104,105,Test,User,-,,Recall,Recall2,82,,0,-1,-1,0,0,,1
M20223504BG,82iukoa9k8,"Mediated JOLs",1,191,2024-11-28T02:04:32+00:00,0.1620569229126,1,versionA_stim.csv,ReadVersion.csv,Read,Read1,ARTERY,BRONZE,Study2,U,103,75,Test,User,-,,Recall,Recall2,101,,0,-1,-1,0,0,,1
M20223504BG,82iukoa9k8,"Mediated JOLs",1,192,2024-11-28T02:04:32+00:00,0.16729807853699,1,versionA_stim.csv,ReadVersion.csv,Read,Read1,BLAZE,FIRE,Study2,F,81,102,Test,User,-,,Recall,Recall2,101,,0,-1,-1,0,0,,1
M20223504BG,82iukoa9k8,"Mediated JOLs",1,193,2024-11-28T02:04:32+00:00,0.29665684700012,1,versionA_stim.csv,ReadVersion.csv,Read,Read1,WASP,BUG,Study2,F,89,96,Test,User,-,,Recall,Recall2,220,,0,-1,-1,0,0,,1
M20223504BG,82iukoa9k8,"Mediated JOLs",1,194,2024-11-28T02:04:33+00:00,0.16114711761475,1,versionA_stim.csv,ReadVersion.csv,Read,Read1,VALLEY,TOP,Study2,M,73,104,Test,User,-,,Recall,Recall2,93,,0,-1,-1,0,0,,1
M20223504BG,82iukoa9k8,"Mediated JOLs",1,195,2024-11-28T02:04:33+00:00,0.16720604896545,1,versionA_stim.csv,ReadVersion.csv,Read,Read1,HAPPY,CAR,Study2,U,92,73,Test,User,-,,Recall,Recall2,105,,0,-1,-1,0,0,,1
M20223504BG,82iukoa9k8,"Mediated JOLs",1,196,2024-11-28T02:04:33+00:00,0.14662384986877,1,versionA_stim.csv,ReadVersion.csv,Read,Read1,RAZOR,ARM,Study2,M,75,99,Test,User,-,,Recall,Recall2,80,,0,-1,-1,0,0,,1
M20223504BG,82iukoa9k8,"Mediated JOLs",1,197,2024-11-28T02:04:33+00:00,0.16644906997681,1,versionA_stim.csv,ReadVersion.csv,Read,Read1,SICK,HIDE,Study2,U,100,69,Test,User,-,,Recall,Recall2,99,,0,-1,-1,0,0,,1
M20223504BG,82iukoa9k8,"Mediated JOLs",1,198,2024-11-28T02:04:33+00:00,0.16363000869751,1,versionA_stim.csv,ReadVersion.csv,Read,Read1,NURSE,COURT,Study2,M,66,63,Test,User,-,,Recall,Recall2,100,,0,-1,-1,0,0,,1
M20223504BG,82iukoa9k8,"Mediated JOLs",1,199,2024-11-28T02:04:33+00:00,0.14670991897583,1,versionA_stim.csv,ReadVersion.csv,Read,Read1,CHILL,COLD,Study2,F,87,80,Test,User,-,,Recall,Recall2,85,,0,-1,-1,0,0,,1
M20223504BG,82iukoa9k8,"Mediated JOLs",1,200,2024-11-28T02:04:34+00:00,0.18385004997253,1,versionA_stim.csv,ReadVersion.csv,Read,Read1,HORNET,STING,Study2,F,85,90,Test,User,-,,Recall,Recall2,120,,0,-1,-1,0,0,,1
M20223504BG,82iukoa9k8,"Mediated JOLs",1,201,2024-11-28T02:04:34+00:00,0.16402792930603,1,versionA_stim.csv,ReadVersion.csv,Read,Read1,SOAP,THIRST,Study2,M,67,77,Test,User,-,,Recall,Recall2,99,,0,-1,-1,0,0,,1
M20223504BG,82iukoa9k8,"Mediated JOLs",1,202,2024-11-28T02:04:34+00:00,0.14865517616272,1,versionA_stim.csv,ReadVersion.csv,Read,Read1,CHOP,CUT,Study2,F,77,106,Test,User,-,,Recall,Recall2,85,,0,-1,-1,0,0,,1
M20223504BG,82iukoa9k8,"Mediated JOLs",1,203,2024-11-28T02:04:34+00:00,0.16549301147461,1,versionA_stim.csv,ReadVersion.csv,Read,Read1,OVEN,WEAVE,Study2,M,71,66,Test,User,-,,Recall,Recall2,101,,0,-1,-1,0,0,,1
M20223504BG,82iukoa9k8,"Mediated JOLs",1,204,2024-11-28T02:04:34+00:00,0.16539883613586,1,versionA_stim.csv,ReadVersion.csv,Read,Read1,INCENSE,SMELL,Study2,F,83,83,Test,User,-,,Recall,Recall2,98,,0,-1,-1,0,0,,1
M20223504BG,82iukoa9k8,"Mediated JOLs",1,205,2024-11-28T02:04:34+00:00,0.16410613059998,1,versionA_stim.csv,ReadVersion.csv,Read,Read1,CACTUS,PLANT,Study2,F,76,79,Test,User,-,,Recall,Recall2,98,,0,-1,-1,0,0,,1
M20223504BG,82iukoa9k8,"Mediated JOLs",1,206,2024-11-28T02:04:35+00:00,0.16698884963989,1,versionA_stim.csv,ReadVersion.csv,Read,Read1,CHERRY,RED,Study2,F,80,101,Test,User,-,,Recall,Recall2,101,,0,-1,-1,0,0,,1
M20223504BG,82iukoa9k8,"Mediated JOLs",1,207,2024-11-28T02:04:35+00:00,0.1463930606842,1,versionA_stim.csv,ReadVersion.csv,Read,Read1,EYES,TASTE,Study2,M,65,74,Test,User,-,,Recall,Recall2,77,,0,-1,-1,0,0,,1
M20223504BG,82iukoa9k8,"Mediated JOLs",1,208,2024-11-28T02:04:35+00:00,0.16410398483276,1,versionA_stim.csv,ReadVersion.csv,Read,Read1,HERD,COW,Study2,F,88,86,Test,User,-,,Recall,Recall2,102,,0,-1,-1,0,0,,1
M20223504BG,82iukoa9k8,"Mediated JOLs",1,209,2024-11-28T02:04:35+00:00,0.1914529800415,1,versionA_stim.csv,ReadVersion.csv,Read,Read1,KING,VASE,Study2,U,91,71,Test,User,-,,Recall,Recall2,100,,0,-1,-1,0,0,,1
M20223504BG,82iukoa9k8,"Mediated JOLs",1,210,2024-11-28T02:04:35+00:00,0.32486796379089,1,versionA_stim.csv,ReadVersion.csv,Read,Read1,BOTH,OUNCE,Study2,U,102,82,Test,User,-,,Recall,Recall2,242,,0,-1,-1,0,0,,1
M20223504BG,82iukoa9k8,"Mediated JOLs",1,211,2024-11-28T02:04:35+00:00,0.14473104476929,1,versionA_stim.csv,ReadVersion.csv,Read,Read1,,,,,,0,Instruct,User,-,"You have completed this section. Please press Enter.",,Instruct7,76,,,-1,-1,,,,1
M20223504BG,82iukoa9k8,"Mediated JOLs",1,212,2024-11-28T02:04:36+00:00,0.1866819858551,1,versionA_stim.csv,ReadVersion.csv,Read,Read1,,,,,,0,Instruct,User,-,"The following screen will ask you a few questions abour your experience today. You must complete these questions to receive credit.",,Instruct8,115,,,-1,-1,,,,1
